host_timestamp,arduino_timestamp,ax,ay,az,gx,gy,gz,temperature
306636284024200,104057,-0.5527,-9.0652,4.2006,0.7245,-1.3622,-0.8552,17.95
306636295226300,104069,-0.5492,-9.0377,4.2006,2.2248,-4.9798,-1.6945,17.95
306636306344800,104080,-0.5408,-9.0748,4.2138,0.7526,-1.9352,-0.4911,17.98
306636318217200,104091,-0.5587,-9.0353,4.2018,0.1197,-0.3225,-0.0880,17.98
306636329255900,104102,-0.5563,-9.0461,4.2209,0.0208,-0.0623,-0.0305,17.96
306636340438500,104114,-0.5683,-9.0413,4.2233,0.0208,-0.0623,-0.0305,18.00
306636351358900,104125,-0.5575,-9.0616,4.2281,0.0208,-0.0611,-0.0305,18.00
306636363242900,104136,-0.5503,-9.0437,4.2341,0.0208,-0.0611,-0.0305,18.00
306636374197100,104147,-0.5575,-9.0592,4.2305,0.0208,-0.0611,-0.0305,18.00
306636385390300,104159,-0.5456,-9.0473,4.2281,0.0208,-0.0599,-0.0293,17.99
306636396642400,104170,-0.5563,-9.0568,4.2317,0.0208,-0.0599,-0.0305,17.99
306636408342900,104181,-0.5563,-9.0509,4.2269,0.0208,-0.0599,-0.0293,17.98
306636419380100,104193,-0.5515,-9.0485,4.2473,0.0208,-0.0611,-0.0305,17.98
306636430326700,104204,-0.5527,-9.0485,4.2508,0.0220,-0.0611,-0.0305,18.00
306636441476500,104215,-0.5623,-9.0509,4.2604,0.0208,-0.0611,-0.0293,18.01
306636453315900,104226,-0.5611,-9.0461,4.2449,0.0208,-0.0611,-0.0305,18.01
306636464459000,104238,-0.5480,-9.0532,4.2544,0.0208,-0.0611,-0.0305,18.05
306636475333600,104249,-0.5480,-9.0497,4.2389,0.0208,-0.0599,-0.0293,18.05
306636487170500,104260,-0.5563,-9.0700,4.2425,0.0208,-0.0611,-0.0293,18.05
306636498261100,104271,-0.5515,-9.0532,4.2413,0.0208,-0.0611,-0.0293,18.05
306636509404900,104283,-0.5659,-9.0532,4.2556,0.0208,-0.0611,-0.0293,18.07
306636520389300,104294,-0.5683,-9.0305,4.2497,0.0208,-0.0611,-0.0305,17.99
306636532089000,104305,-0.5683,-9.0520,4.2628,0.0208,-0.0611,-0.0305,17.99
306636543240300,104316,-0.5599,-9.0497,4.2520,0.0208,-0.0611,-0.0305,18.05
306636554384800,104328,-0.5551,-9.0485,4.2616,0.0208,-0.0611,-0.0305,18.05
306636565513700,104339,-0.5492,-9.0425,4.2592,0.0208,-0.0611,-0.0305,18.07
306636577217600,104350,-0.5551,-9.0473,4.2532,0.0195,-0.0611,-0.0305,18.07
306636588309300,104361,-0.5480,-9.0437,4.2604,0.0208,-0.0611,-0.0293,18.07
306636599394500,104373,-0.5599,-9.0425,4.2568,0.0208,-0.0611,-0.0293,18.07
306636610416800,104384,-0.5623,-9.0365,4.2604,0.0208,-0.0611,-0.0305,18.05
306636622156400,104395,-0.5719,-9.0485,4.2604,0.0208,-0.0611,-0.0305,18.10
306636633277500,104407,-0.5575,-9.0401,4.2592,0.0208,-0.0599,-0.0305,18.10
306636644436400,104418,-0.5551,-9.0485,4.2676,0.0208,-0.0599,-0.0293,18.06
306636655512000,104429,-0.5492,-9.0473,4.2616,0.0208,-0.0599,-0.0305,18.06
306636667029800,104440,-0.5468,-9.0473,4.2568,0.0208,-0.0611,-0.0305,18.05
306636678400800,104452,-0.5396,-9.0413,4.2616,0.0208,-0.0611,-0.0305,18.05
306636689327100,104463,-0.5480,-9.0485,4.2808,0.0208,-0.0599,-0.0305,18.06
306636700468600,104474,-0.5599,-9.0365,4.2772,0.0208,-0.0611,-0.0305,18.03
306636712245900,104485,-0.5719,-9.0389,4.2832,0.0208,-0.0611,-0.0305,18.03
306636723382400,104497,-0.5767,-9.0401,4.2999,0.0208,-0.0611,-0.0305,18.05
306636734385400,104508,-0.5587,-9.0437,4.2808,0.0208,-0.0599,-0.0305,18.05
306636745429900,104519,-0.5503,-9.0652,4.2796,0.0232,-0.0599,-0.0305,18.06
306636757224200,104530,-0.5324,-9.0305,4.2772,0.0305,-0.0586,-0.0281,18.06
306636768394700,104542,-0.5336,-9.0568,4.2700,0.0269,-0.0599,-0.0293,18.05
306636779397600,104553,-0.5611,-9.0042,4.2820,0.0293,-0.0599,-0.0269,18.05
306636790577300,104564,-0.5551,-9.1298,4.2532,0.0305,-0.0599,-0.0281,18.09
306636802293600,104576,-0.5922,-8.9815,4.2879,0.0391,-0.0574,-0.0257,18.07
306636813472000,104587,-0.5659,-9.0879,4.2652,0.0257,-0.0599,-0.0305,18.07
306636824363100,104598,-0.5791,-9.0221,4.2891,0.0354,-0.0586,-0.0293,18.09
306636836113300,104609,-0.5719,-8.9839,4.2975,0.0293,-0.0599,-0.0293,18.09
306636847325100,104621,-0.5515,-9.0724,4.2855,0.0171,-0.0611,-0.0330,18.07
306636858433700,104632,-0.5348,-9.0401,4.2939,0.0232,-0.0599,-0.0305,18.07
306636869459300,104643,-0.5408,-9.0485,4.2808,0.0122,-0.0623,-0.0330,18.08
306636881099400,104654,-0.5575,-9.0544,4.2760,0.0134,-0.0623,-0.0330,18.11
306636892372600,104666,-0.5695,-9.0317,4.2784,0.0159,-0.0623,-0.0318,18.11
306636903465800,104677,-0.5719,-9.0485,4.2724,0.0110,-0.0623,-0.0330,18.12
306636914445200,104688,-0.5671,-9.0293,4.2843,0.0110,-0.0623,-0.0330,18.12
306636926241400,104699,-0.5695,-9.0341,4.2700,0.0086,-0.0623,-0.0342,18.14
306636937372400,104711,-0.5647,-9.0341,4.2867,0.0073,-0.0635,-0.0342,18.14
306636948365300,104722,-0.5492,-9.1214,4.5452,0.0012,-0.0660,-0.0330,18.07
306636959509600,104733,-0.5456,-9.0485,4.2736,0.0183,-0.0611,-0.0318,18.10
306636971113800,104744,-0.5503,-9.0592,4.2808,0.0220,-0.0611,-0.0293,18.10
306636982400500,104756,-0.5527,-9.0772,4.2796,0.0220,-0.0611,-0.0305,18.14
306636993479500,104767,-0.5671,-8.9850,4.3131,0.0281,-0.0611,-0.0281,18.14
306637005141400,104778,-0.5563,-9.0736,4.2855,0.0183,-0.0611,-0.0305,18.09
306637016050800,104790,-0.5551,-9.0293,4.2975,0.0171,-0.0611,-0.0318,18.09
306637027066700,104801,-0.5551,-9.0748,4.2808,0.0208,-0.0611,-0.0305,18.12
306637038081900,104812,-0.5599,-9.0221,4.2843,0.0232,-0.0611,-0.0305,18.12
306637049846500,104823,-0.5563,-9.0616,4.2820,0.0220,-0.0611,-0.0305,18.15
306637060877500,104835,-0.5707,-8.9934,4.3023,0.0269,-0.0611,-0.0293,18.12
306637071970700,104846,-0.5384,-9.1298,4.2688,0.0195,-0.0611,-0.0318,18.12
306637083062100,104857,-0.5611,-9.0185,4.2999,0.0379,-0.0611,-0.0269,18.12
306637095123700,104868,-0.5575,-9.0509,4.3011,0.0489,-0.0574,-0.0305,18.12
306637106272500,104880,-0.5623,-9.0377,4.3059,0.0428,-0.0586,-0.0293,18.08
306637117240300,104891,-0.5731,-8.9815,4.3143,0.0305,-0.0574,-0.0330,18.08
306637128198600,104902,-0.5599,-9.0042,4.3059,0.0220,-0.0574,-0.0318,18.14
306637140040600,104913,-0.5468,-9.0808,4.2867,0.0195,-0.0586,-0.0318,18.08
306637151213700,104925,-0.5659,-9.0042,4.3023,0.0281,-0.0574,-0.0293,18.08
306637162473000,104936,-0.5707,-8.9671,4.3430,0.0183,-0.0586,-0.0354,18.14
306637174234300,104947,-0.5623,-9.1442,4.2975,-0.0086,-0.0672,-0.0428,18.14
306637185041500,104958,-0.5432,-8.9384,4.3059,-0.0049,-0.0684,-0.0489,18.10
306637196020000,104970,-0.5240,-9.2028,4.2257,0.0024,-0.0672,-0.0293,18.10
306637206938400,104981,-0.5492,-8.9563,4.3023,0.0489,-0.0586,-0.0110,18.10
306637218998200,104992,-0.5683,-9.1011,4.2903,0.0403,-0.0599,-0.0122,18.10
306637230177600,105004,-0.5312,-9.0844,4.2843,0.0134,-0.0684,-0.0293,18.09
306637241345000,105015,-0.5659,-9.0221,4.3167,0.0220,-0.0623,-0.0305,18.12
306637252447500,105026,-0.5503,-9.0413,4.3023,0.0159,-0.0635,-0.0330,18.12
306637264214100,105037,-0.5599,-9.0185,4.3131,0.0195,-0.0623,-0.0305,18.12
306637275362400,105049,-0.5456,-9.0556,4.2939,0.0147,-0.0635,-0.0318,18.12
306637286419100,105060,-0.5480,-9.0520,4.2891,0.0159,-0.0623,-0.0318,18.18
306637297462700,105071,-0.5468,-9.0425,4.3023,0.0183,-0.0635,-0.0318,18.18
306637309334300,105082,-0.5492,-9.0377,4.2963,0.0159,-0.0623,-0.0330,18.12
306637320368500,105094,-0.5551,-9.0628,4.3023,0.0220,-0.0599,-0.0281,18.13
306637331507900,105105,-0.5635,-8.9982,4.3047,0.0195,-0.0599,-0.0305,18.13
306637343204700,105116,-0.5480,-9.0772,4.2867,0.0122,-0.0623,-0.0318,18.14
306637354320100,105127,-0.5635,-9.0174,4.3107,0.0220,-0.0599,-0.0293,18.14
306637365371600,105139,-0.5432,-9.0616,4.2915,0.0159,-0.0611,-0.0305,18.14
306637376414100,105150,-0.5503,-9.0341,4.2975,0.0195,-0.0611,-0.0293,18.14
306637388267100,105161,-0.5515,-9.0568,4.2879,0.0183,-0.0599,-0.0305,18.12
306637399260100,105172,-0.5539,-9.0544,4.2939,0.0208,-0.0599,-0.0305,18.12
306637410382800,105184,-0.5575,-9.0413,4.2963,0.0208,-0.0599,-0.0305,18.16
306637421336800,105195,-0.5611,-9.0353,4.3059,0.0208,-0.0599,-0.0293,18.10
306637433180800,105206,-0.5420,-9.0556,4.3023,0.0208,-0.0599,-0.0305,18.10
306637444220900,105218,-0.5623,-9.0353,4.2915,0.0208,-0.0599,-0.0293,18.14
306637455199600,105229,-0.5480,-9.0688,4.3143,0.0208,-0.0599,-0.0305,18.14
306637466467300,105240,-0.5551,-9.0209,4.2855,0.0208,-0.0599,-0.0305,18.12
306637478091900,105251,-0.5503,-9.0556,4.3047,0.0208,-0.0599,-0.0293,18.12
306637489178900,105263,-0.5599,-9.0425,4.2987,0.0208,-0.0611,-0.0293,18.13
306637500187600,105274,-0.5599,-9.0509,4.3143,0.0208,-0.0611,-0.0305,18.13
306637511102600,105285,-0.5527,-9.0353,4.3023,0.0208,-0.0611,-0.0305,18.13
306637523178400,105296,-0.5611,-9.0509,4.3095,0.0208,-0.0599,-0.0305,18.16
306637534280500,105308,-0.5492,-9.0341,4.3023,0.0208,-0.0599,-0.0305,18.16
306637545296100,105319,-0.5456,-9.0473,4.3047,0.0208,-0.0611,-0.0305,18.12
306637556283300,105330,-0.5563,-9.0461,4.2951,0.0208,-0.0611,-0.0305,18.12
306637568146400,105341,-0.5659,-9.0485,4.2975,0.0208,-0.0611,-0.0305,18.16
306637579317800,105353,-0.5551,-9.0389,4.3059,0.0208,-0.0611,-0.0305,18.14
306637590284000,105364,-0.5527,-9.0413,4.3119,0.0195,-0.0611,-0.0293,18.14
306637602172600,105375,-0.5432,-9.0377,4.3095,0.0195,-0.0611,-0.0293,18.15
306637613163700,105387,-0.5444,-9.0437,4.3035,0.0208,-0.0599,-0.0293,18.15
306637624212100,105398,-0.5539,-9.0377,4.3047,0.0208,-0.0599,-0.0305,18.15
306637635211900,105409,-0.5527,-9.0461,4.2939,0.0208,-0.0599,-0.0305,18.15
306637647156600,105420,-0.5539,-9.0449,4.3035,0.0208,-0.0611,-0.0305,18.14
306637658129000,105432,-0.5671,-9.0437,4.3047,0.0195,-0.0611,-0.0305,18.14
306637669140100,105443,-0.5683,-9.0401,4.3131,0.0195,-0.0599,-0.0305,18.13
306637680337300,105454,-0.5527,-9.0473,4.3071,0.0195,-0.0599,-0.0305,18.15
306637692142300,105465,-0.5480,-9.0449,4.3167,0.0208,-0.0611,-0.0293,18.15
306637703123300,105477,-0.5515,-9.0389,4.3011,0.0208,-0.0611,-0.0305,18.12
306637714272700,105488,-0.5408,-9.0389,4.3107,0.0208,-0.0611,-0.0305,18.12
306637725366900,105499,-0.5563,-9.0389,4.3155,0.0208,-0.0611,-0.0305,18.14
306637736916900,105510,-0.5539,-9.0341,4.3119,0.0195,-0.0611,-0.0305,18.14
306637748166900,105522,-0.5492,-9.0401,4.2987,0.0208,-0.0611,-0.0305,18.17
306637759232500,105533,-0.5551,-9.0389,4.3059,0.0208,-0.0611,-0.0305,18.12
306637771114200,105544,-0.5468,-9.0497,4.2975,0.0208,-0.0611,-0.0305,18.12
306637782150600,105555,-0.5575,-9.0449,4.3059,0.0208,-0.0611,-0.0305,18.18
306637793045400,105567,-0.5527,-9.0449,4.3083,0.0220,-0.0611,-0.0293,18.18
306637804402400,105578,-0.5563,-9.0329,4.3107,0.0220,-0.0599,-0.0293,18.12
306637816111700,105589,-0.5539,-9.0628,4.3035,0.0220,-0.0611,-0.0293,18.12
306637827225500,105601,-0.5659,-9.0162,4.3047,0.0220,-0.0611,-0.0305,18.19
306637838248600,105612,-0.5492,-9.0401,4.2951,0.0183,-0.0611,-0.0318,18.19
306637849323900,105623,-0.5444,-9.0461,4.2951,0.0208,-0.0611,-0.0305,18.16
306637861142800,105634,-0.5587,-9.0317,4.3083,0.0232,-0.0611,-0.0293,18.16
306637872253700,105646,-0.5527,-9.0449,4.3107,0.0208,-0.0611,-0.0305,18.16
306637883297000,105657,-0.5659,-9.0401,4.3190,0.0208,-0.0611,-0.0305,18.19
306637894270900,105668,-0.5659,-9.0389,4.3155,0.0208,-0.0611,-0.0293,18.19
306637906196100,105679,-0.5635,-9.0449,4.3011,0.0195,-0.0611,-0.0305,18.19
306637917260700,105691,-0.5587,-9.0449,4.3047,0.0195,-0.0611,-0.0305,18.19
306637928397600,105702,-0.5563,-9.0401,4.3143,0.0208,-0.0599,-0.0305,18.20
306637940145400,105713,-0.5503,-9.0353,4.3131,0.0208,-0.0611,-0.0293,18.13
306637951256000,105724,-0.5515,-9.0401,4.3035,0.0195,-0.0599,-0.0293,18.13
306637962175400,105736,-0.5527,-9.0377,4.3119,0.0183,-0.0611,-0.0293,18.14
306637973203600,105747,-0.5444,-9.0389,4.3107,0.0171,-0.0611,-0.0293,18.14
306637985097100,105758,-0.5515,-9.0485,4.3119,0.0195,-0.0611,-0.0293,18.13
306637996112300,105769,-0.5527,-9.0413,4.3095,0.0195,-0.0599,-0.0293,18.13
306638007194300,105781,-0.5635,-9.0485,4.3143,0.0208,-0.0611,-0.0305,18.19
306638018305200,105792,-0.5456,-9.0401,4.3047,0.0208,-0.0611,-0.0305,18.19
306638030258800,105803,-0.5503,-9.0497,4.3119,0.0208,-0.0599,-0.0318,18.18
306638041275200,105815,-0.5719,-9.0712,4.3035,0.0208,-0.0599,-0.0293,18.16
306638052270800,105826,-0.5228,-8.9934,4.3214,0.0208,-0.0586,-0.0293,18.16
306638063463800,105837,-0.5707,-9.0628,4.3023,0.0208,-0.0599,-0.0293,18.19
306638074975300,105848,-0.5527,-9.0389,4.3035,0.0208,-0.0611,-0.0305,18.19
306638086291300,105860,-0.5587,-9.0497,4.3035,0.0208,-0.0599,-0.0305,18.19
306638097230800,105871,-0.5635,-9.0473,4.3059,0.0208,-0.0599,-0.0293,18.19
306638108342400,105882,-0.5492,-9.0461,4.3167,0.0208,-0.0611,-0.0305,18.16
306638120218400,105893,-0.5527,-9.0413,4.3167,0.0208,-0.0611,-0.0293,18.17
306638131155800,105905,-0.5539,-9.0353,4.3167,0.0208,-0.0599,-0.0305,18.17
306638142249900,105916,-0.5575,-9.0353,4.3155,0.0208,-0.0599,-0.0305,18.21
306638154105100,105927,-0.5611,-9.0425,4.3155,0.0208,-0.0599,-0.0293,18.21
306638165111200,105938,-0.5563,-9.0329,4.3107,0.0208,-0.0599,-0.0293,18.17
306638176046100,105950,-0.5575,-9.0688,4.3167,0.0208,-0.0599,-0.0293,18.17
306638186968300,105961,-0.5539,-9.0150,4.2808,0.0208,-0.0599,-0.0293,18.16
306638198817200,105972,-0.5480,-9.0197,4.2891,0.0208,-0.0611,-0.0305,18.16
306638209903900,105984,-0.5862,-9.0616,4.3071,0.0208,-0.0611,-0.0293,18.17
306638220984200,105995,-0.5492,-9.0473,4.3131,0.0208,-0.0611,-0.0318,18.16
306638231958400,106006,-0.5587,-9.0365,4.3011,0.0208,-0.0611,-0.0305,18.16
306638244126000,106017,-0.5539,-9.0580,4.3083,0.0208,-0.0611,-0.0305,18.19
306638255148300,106029,-0.5575,-9.0341,4.3083,0.0208,-0.0611,-0.0305,18.19
306638266146300,106040,-0.5575,-9.0449,4.3167,0.0208,-0.0623,-0.0293,18.18
306638277318400,106051,-0.5587,-9.0389,4.3083,0.0208,-0.0611,-0.0305,18.18
306638289120600,106062,-0.5527,-9.0341,4.3095,0.0208,-0.0599,-0.0318,18.17
306638300311200,106074,-0.5611,-9.0425,4.3167,0.0208,-0.0599,-0.0293,18.20
306638311401000,106085,-0.5527,-9.0520,4.3047,0.0208,-0.0611,-0.0293,18.20
306638322637900,106096,-0.5468,-9.0245,4.3071,0.0220,-0.0611,-0.0305,18.18
306638334294000,106107,-0.5420,-9.0891,4.3083,0.0208,-0.0623,-0.0305,18.18
306638345103300,106119,-0.5551,-8.9408,4.2903,0.0257,-0.0599,-0.0293,18.21
306638356148500,106130,-0.5539,-9.1442,4.3394,0.0159,-0.0611,-0.0318,18.21
306638368114900,106141,-0.5755,-9.0042,4.3585,0.0220,-0.0599,-0.0293,18.19
306638379170300,106152,-0.5611,-9.0556,4.3310,0.0171,-0.0611,-0.0318,18.19
306638390223800,106164,-0.5647,-9.0257,4.3238,0.0208,-0.0611,-0.0305,18.19
306638401175500,106175,-0.5539,-9.0580,4.3250,0.0183,-0.0611,-0.0305,18.20
306638413124500,106186,-0.5384,-9.0185,4.3155,0.0208,-0.0599,-0.0293,18.20
306638424306500,106198,-0.5288,-9.0568,4.3119,0.0208,-0.0599,-0.0293,18.18
306638435324400,106209,-0.5216,-9.0293,4.3047,0.0208,-0.0599,-0.0293,18.18
306638446367500,106220,-0.5360,-9.0485,4.3119,0.0195,-0.0599,-0.0305,18.20
306638458161600,106231,-0.5492,-9.0377,4.3035,0.0208,-0.0599,-0.0293,18.20
306638469226300,106243,-0.5743,-9.0520,4.3131,0.0195,-0.0599,-0.0293,18.19
306638480279900,106254,-0.5731,-9.0401,4.2951,0.0208,-0.0599,-0.0281,18.23
306638491486200,106265,-0.5695,-9.0509,4.2951,0.0195,-0.0599,-0.0293,18.23
306638503295600,106276,-0.5587,-9.0461,4.2975,0.0195,-0.0599,-0.0293,18.21
306638514377900,106288,-0.5515,-9.0449,4.3143,0.0208,-0.0611,-0.0293,18.21
306638525509300,106299,-0.5384,-9.0449,4.3167,0.0208,-0.0611,-0.0305,18.16
306638537021500,106310,-0.5468,-9.0353,4.3035,0.0195,-0.0611,-0.0305,18.16
306638548251700,106321,-0.5468,-9.0413,4.3071,0.0208,-0.0611,-0.0305,18.22
306638559456100,106333,-0.5563,-9.0461,4.3190,0.0208,-0.0599,-0.0305,18.21
306638570269300,106344,-0.5635,-9.0425,4.3131,0.0208,-0.0611,-0.0305,18.21
306638582178600,106355,-0.5599,-9.0413,4.3107,0.0208,-0.0611,-0.0305,18.20
306638593321800,106366,-0.5456,-9.0413,4.2927,0.0208,-0.0611,-0.0305,18.20
306638604454400,106378,-0.5587,-9.0449,4.3107,0.0195,-0.0611,-0.0305,18.14
306638615522000,106389,-0.5539,-9.0473,4.3226,0.0208,-0.0611,-0.0305,18.14
306638627256800,106400,-0.5492,-9.0389,4.3190,0.0208,-0.0611,-0.0305,18.19
306638638325900,106412,-0.5539,-9.0317,4.3298,0.0208,-0.0599,-0.0318,18.19
306638649467500,106423,-0.5480,-9.0365,4.3202,0.0220,-0.0599,-0.0305,18.17
306638660457000,106434,-0.5599,-9.0401,4.3155,0.0208,-0.0611,-0.0305,18.19
306638672106400,106445,-0.5456,-9.0377,4.3155,0.0208,-0.0611,-0.0305,18.19
306638683419600,106457,-0.5623,-9.0437,4.3178,0.0208,-0.0611,-0.0293,18.18
306638694221400,106468,-0.5635,-9.0449,4.3107,0.0195,-0.0611,-0.0293,18.18
306638705424500,106479,-0.5623,-9.0341,4.3226,0.0208,-0.0611,-0.0305,18.19
306638717252400,106490,-0.5635,-9.0317,4.3226,0.0208,-0.0611,-0.0305,18.19
306638728450400,106502,-0.5539,-9.0329,4.3178,0.0208,-0.0611,-0.0305,18.17
306638739397200,106513,-0.5456,-9.0365,4.3178,0.0208,-0.0611,-0.0305,18.19
306638751164500,106524,-0.5468,-9.0365,4.3155,0.0208,-0.0611,-0.0305,18.19
306638762282000,106535,-0.5563,-9.0377,4.3107,0.0208,-0.0611,-0.0305,18.18
306638773462100,106547,-0.5563,-9.0365,4.3178,0.0208,-0.0611,-0.0305,18.18
306638784461600,106558,-0.5623,-9.0329,4.3214,0.0208,-0.0611,-0.0318,18.18
306638796216400,106569,-0.5599,-9.0413,4.3167,0.0208,-0.0599,-0.0305,18.18
306638807282200,106580,-0.5480,-9.0449,4.3178,0.0208,-0.0611,-0.0305,18.20
306638818383300,106592,-0.5492,-9.0365,4.3167,0.0208,-0.0611,-0.0305,18.20
306638829447700,106603,-0.5539,-9.0413,4.3190,0.0208,-0.0599,-0.0305,18.19
306638841285900,106614,-0.5551,-9.0329,4.3178,0.0208,-0.0611,-0.0305,18.19
306638852325300,106626,-0.5444,-9.0377,4.3226,0.0208,-0.0599,-0.0293,18.19
306638863422900,106637,-0.5492,-9.0461,4.3190,0.0208,-0.0599,-0.0305,18.18
306638874442200,106648,-0.5444,-9.0425,4.3167,0.0208,-0.0611,-0.0305,18.18
306638886218200,106659,-0.5527,-9.0401,4.3310,0.0208,-0.0611,-0.0305,18.19
306638897402300,106671,-0.5515,-9.0485,4.3107,0.0208,-0.0599,-0.0305,18.19
306638908486200,106682,-0.5492,-9.0377,4.3178,0.0220,-0.0599,-0.0305,18.14
306638919478700,106693,-0.5623,-9.0341,4.3095,0.0208,-0.0599,-0.0305,18.23
306638931353800,106704,-0.5563,-9.0449,4.3071,0.0208,-0.0599,-0.0305,18.23
306638942467800,106716,-0.5551,-9.0341,4.3119,0.0195,-0.0611,-0.0305,18.19
306638953394200,106727,-0.5611,-9.0437,4.3119,0.0208,-0.0611,-0.0305,18.19
306638965219200,106738,-0.5671,-9.0401,4.3155,0.0220,-0.0611,-0.0293,18.22
306638976263100,106749,-0.5623,-9.0413,4.3214,0.0208,-0.0599,-0.0293,18.22
306638987389100,106761,-0.5611,-9.0532,4.3095,0.0208,-0.0599,-0.0305,18.21
306638998361700,106772,-0.5647,-9.0389,4.3155,0.0208,-0.0599,-0.0293,18.16
306639010179400,106783,-0.5563,-9.0365,4.3083,0.0208,-0.0599,-0.0293,18.16
306639021252100,106795,-0.5527,-9.0377,4.3143,0.0208,-0.0599,-0.0305,18.16
306639032449700,106806,-0.5695,-9.0401,4.3011,0.0195,-0.0611,-0.0293,18.16
306639043416000,106817,-0.5551,-9.0365,4.3178,0.0208,-0.0611,-0.0293,18.23
306639055215100,106828,-0.5468,-9.0078,4.2999,0.0208,-0.0599,-0.0293,18.23
306639066380500,106840,-0.5456,-9.0808,4.3382,0.0208,-0.0599,-0.0293,18.20
306639077205500,106851,-0.5432,-8.9970,4.2987,0.0220,-0.0599,-0.0305,18.20
306639088238900,106862,-0.5671,-9.0999,4.3609,0.0195,-0.0611,-0.0318,18.20
306639100200400,106873,-0.5958,-8.9575,4.2784,0.0208,-0.0599,-0.0293,18.23
306639111425100,106885,-0.5755,-9.1011,4.3406,0.0195,-0.0599,-0.0305,18.23
306639122421600,106896,-0.5767,-9.0066,4.2927,0.0208,-0.0599,-0.0293,18.19
306639133583500,106907,-0.5635,-9.0712,4.3083,0.0220,-0.0611,-0.0305,18.19
306639145274500,106918,-0.5276,-9.0676,4.3011,0.0269,-0.0599,-0.0305,18.21
306639156306800,106930,-0.5324,-9.0102,4.3047,0.0330,-0.0586,-0.0269,18.21
306639167390200,106941,-0.5408,-8.9719,4.3358,0.0281,-0.0586,-0.0305,18.20
306639179227100,106952,-0.5432,-9.0461,4.3382,0.0195,-0.0611,-0.0305,18.16
306639190277100,106963,-0.5551,-9.0437,4.3178,0.0159,-0.0611,-0.0305,18.16
306639201499900,106975,-0.5850,-9.0162,4.3274,0.0159,-0.0611,-0.0293,18.18
306639212513500,106986,-0.5671,-9.0712,4.3095,0.0098,-0.0623,-0.0318,18.18
306639224204200,106997,-0.5779,-9.0281,4.3035,0.0159,-0.0611,-0.0305,18.22
306639235151800,107009,-0.5503,-9.0353,4.3107,0.0159,-0.0611,-0.0318,18.22
306639246460300,107020,-0.5551,-9.0867,4.3298,0.0159,-0.0611,-0.0318,18.22
306639257404500,107031,-0.5480,-9.0736,4.3382,0.0183,-0.0599,-0.0305,18.22
306639269185600,107042,-0.5527,-9.0126,4.2999,0.0195,-0.0611,-0.0293,18.20
306639280330600,107054,-0.5480,-9.0592,4.3190,0.0208,-0.0623,-0.0305,18.20
306639291437400,107065,-0.5719,-9.0341,4.3131,0.0208,-0.0611,-0.0305,18.20
306639302441300,107076,-0.5695,-9.0389,4.3107,0.0208,-0.0611,-0.0305,18.22
306639314265000,107087,-0.5683,-9.0520,4.3155,0.0220,-0.0611,-0.0305,18.22
306639325491700,107099,-0.5563,-9.0197,4.3238,0.0244,-0.0599,-0.0293,18.23
306639336553500,107110,-0.5527,-9.0473,4.3274,0.0220,-0.0611,-0.0293,18.23
306639348209900,107121,-0.5492,-9.0389,4.3167,0.0232,-0.0599,-0.0281,18.20
306639359291600,107132,-0.5456,-9.0556,4.3178,0.0220,-0.0611,-0.0293,18.22
306639370415800,107144,-0.5539,-9.0353,4.3131,0.0232,-0.0599,-0.0293,18.22
306639381470000,107155,-0.5575,-9.0485,4.3143,0.0232,-0.0611,-0.0293,18.22
306639393233600,107166,-0.5635,-9.0341,4.3083,0.0220,-0.0599,-0.0305,18.22
306639404311700,107177,-0.5587,-9.0425,4.3202,0.0232,-0.0611,-0.0305,18.21
306639415469800,107189,-0.5492,-9.0377,4.3178,0.0232,-0.0599,-0.0293,18.21
306639426283300,107200,-0.5527,-9.0449,4.3143,0.0244,-0.0611,-0.0293,18.19
306639438226600,107211,-0.5599,-9.0724,4.3190,0.0269,-0.0599,-0.0293,18.19
306639449328000,107223,-0.5599,-8.9515,4.3178,0.0330,-0.0574,-0.0293,18.25
306639460424400,107234,-0.5312,-9.1418,4.3178,0.0208,-0.0599,-0.0305,18.23
306639471519200,107245,-0.5683,-8.9360,4.3250,0.0318,-0.0574,-0.0281,18.23
306639483317800,107256,-0.5480,-9.1023,4.3155,0.0195,-0.0586,-0.0305,18.20
306639494181800,107268,-0.5599,-9.0078,4.3310,0.0269,-0.0586,-0.0293,18.20
306639505405900,107279,-0.5492,-9.0401,4.3334,0.0208,-0.0599,-0.0305,18.20
306639516919400,107290,-0.5539,-9.0580,4.3286,0.0208,-0.0611,-0.0305,18.20
306639528288400,107301,-0.5599,-9.0473,4.3274,0.0195,-0.0599,-0.0293,18.22
306639539393200,107313,-0.5539,-9.0233,4.3334,0.0195,-0.0599,-0.0293,18.21
306639550367100,107324,-0.5468,-9.0461,4.3202,0.0159,-0.0611,-0.0305,18.21
306639562140300,107335,-0.5503,-9.0437,4.3358,0.0147,-0.0611,-0.0318,18.23
306639573382700,107346,-0.5551,-9.0377,4.3155,0.0159,-0.0611,-0.0305,18.23
306639584465800,107358,-0.5503,-9.0509,4.3107,0.0159,-0.0611,-0.0305,18.17
306639595294100,107369,-0.5623,-9.0365,4.3095,0.0195,-0.0611,-0.0305,18.17
306639607289200,107380,-0.5635,-9.0485,4.3131,0.0220,-0.0611,-0.0305,18.24
306639618368800,107392,-0.5587,-9.0341,4.3119,0.0257,-0.0599,-0.0293,18.22
306639629449800,107403,-0.5599,-9.0281,4.3143,0.0244,-0.0611,-0.0293,18.22
306639640454200,107414,-0.5515,-9.0425,4.3190,0.0244,-0.0611,-0.0293,18.19
306639652172200,107425,-0.5480,-9.0305,4.3298,0.0244,-0.0599,-0.0305,18.19
306639663340500,107437,-0.5480,-9.0353,4.3190,0.0232,-0.0611,-0.0305,18.21
306639674248600,107448,-0.5527,-9.0413,4.3107,0.0232,-0.0599,-0.0305,18.21
306639685499300,107459,-0.5575,-9.0413,4.3202,0.0232,-0.0611,-0.0293,18.21
306639697237500,107470,-0.5587,-9.0245,4.3143,0.0232,-0.0599,-0.0293,18.21
306639708243600,107482,-0.5599,-9.0365,4.3167,0.0232,-0.0599,-0.0293,18.23
306639719364700,107493,-0.5671,-9.0401,4.3250,0.0232,-0.0599,-0.0305,18.22
306639731101100,107504,-0.5551,-9.0389,4.3155,0.0232,-0.0599,-0.0305,18.22
306639742232300,107515,-0.5599,-9.0365,4.3202,0.0232,-0.0599,-0.0293,18.21
306639753374100,107527,-0.5599,-9.0473,4.3274,0.0220,-0.0599,-0.0305,18.21
306639764317900,107538,-0.5492,-9.0317,4.3214,0.0232,-0.0599,-0.0293,18.25
306639776124400,107549,-0.5599,-9.0293,4.3250,0.0220,-0.0599,-0.0305,18.25
306639787210700,107560,-0.5527,-9.0413,4.3322,0.0220,-0.0611,-0.0305,18.21
306639798283900,107572,-0.5695,-9.0281,4.3322,0.0183,-0.0599,-0.0305,18.25
306639809367700,107583,-0.5587,-9.0461,4.3167,0.0195,-0.0599,-0.0305,18.25
306639821150500,107594,-0.5659,-9.0401,4.3214,0.0208,-0.0599,-0.0305,18.23
306639832275400,107606,-0.5611,-9.0377,4.3214,0.0220,-0.0599,-0.0305,18.23
306639843342400,107617,-0.5551,-9.0425,4.3250,0.0220,-0.0611,-0.0305,18.21
306639854472700,107628,-0.5563,-9.0185,4.3262,0.0208,-0.0599,-0.0305,18.21
306639866270600,107639,-0.5587,-9.0461,4.3250,0.0208,-0.0599,-0.0305,18.21
306639877348800,107651,-0.5563,-9.0425,4.3238,0.0220,-0.0611,-0.0293,18.21
306639888388700,107662,-0.5659,-9.0293,4.3262,0.0208,-0.0599,-0.0293,18.23
306639900129400,107673,-0.5695,-9.0377,4.3190,0.0208,-0.0599,-0.0305,18.18
306639911247100,107684,-0.5599,-9.0293,4.3298,0.0220,-0.0611,-0.0305,18.18
306639922349900,107696,-0.5659,-9.0281,4.3262,0.0208,-0.0611,-0.0305,18.24
306639933205400,107707,-0.5599,-9.0389,4.3190,0.0208,-0.0599,-0.0318,18.24
306639945096400,107718,-0.5587,-9.0305,4.3143,0.0208,-0.0599,-0.0305,18.23
306639956253200,107729,-0.5515,-9.0401,4.3202,0.0208,-0.0599,-0.0293,18.23
306639967313000,107741,-0.5635,-9.0437,4.3167,0.0208,-0.0611,-0.0293,18.24
306639978405800,107752,-0.5635,-9.0401,4.3262,0.0208,-0.0599,-0.0293,18.20
306639990334200,107763,-0.5551,-9.0305,4.3286,0.0208,-0.0599,-0.0305,18.20
306640001184400,107774,-0.5587,-9.0365,4.3190,0.0208,-0.0599,-0.0305,18.18
306640012309700,107786,-0.5515,-9.0257,4.3250,0.0208,-0.0599,-0.0305,18.18
306640023259400,107797,-0.5551,-9.0485,4.3274,0.0208,-0.0611,-0.0305,18.20
306640035134200,107808,-0.5611,-9.0305,4.3298,0.0208,-0.0611,-0.0293,18.20
306640046257500,107820,-0.5671,-9.0401,4.3262,0.0208,-0.0599,-0.0305,18.23
306640057337400,107831,-0.5575,-9.0389,4.3250,0.0208,-0.0611,-0.0293,18.23
306640068417300,107842,-0.5539,-9.0425,4.3202,0.0208,-0.0599,-0.0305,18.21
306640080166500,107853,-0.5563,-9.0365,4.3178,0.0220,-0.0611,-0.0305,18.26
306640091324000,107865,-0.5755,-9.0317,4.3274,0.0244,-0.0599,-0.0293,18.26
306640102375400,107876,-0.5563,-9.0341,4.3322,0.0208,-0.0599,-0.0305,18.22
306640113336400,107887,-0.5611,-9.0353,4.3394,0.0208,-0.0599,-0.0305,18.22
306640125213000,107898,-0.5599,-9.0269,4.3155,0.0195,-0.0599,-0.0305,18.25
306640136356600,107910,-0.5539,-9.0353,4.3250,0.0183,-0.0599,-0.0305,18.25
306640147405500,107921,-0.5515,-9.0353,4.3190,0.0171,-0.0611,-0.0305,18.20
306640159101000,107932,-0.5539,-9.0401,4.3214,0.0159,-0.0611,-0.0305,18.21
306640170194000,107943,-0.5480,-9.0437,4.3250,0.0159,-0.0611,-0.0305,18.21
306640181252900,107955,-0.5587,-9.0341,4.3202,0.0171,-0.0611,-0.0305,18.23
306640192237000,107966,-0.5599,-9.0377,4.3322,0.0195,-0.0599,-0.0305,18.23
306640204135500,107977,-0.5731,-9.0353,4.3298,0.0195,-0.0599,-0.0305,18.22
306640215185700,107988,-0.5503,-9.0317,4.3322,0.0208,-0.0611,-0.0305,18.22
306640226273400,108000,-0.5527,-9.0293,4.3131,0.0220,-0.0611,-0.0305,18.24
306640237350200,108011,-0.5456,-9.0377,4.3178,0.0220,-0.0599,-0.0305,18.23
306640249112100,108022,-0.5623,-9.0425,4.3107,0.0220,-0.0599,-0.0305,18.23
306640260273300,108034,-0.5599,-9.0293,4.3274,0.0220,-0.0599,-0.0305,18.27
306640271311600,108045,-0.5611,-9.0389,4.3214,0.0208,-0.0599,-0.0305,18.27
306640282457100,108056,-0.5647,-9.0269,4.3238,0.0195,-0.0611,-0.0305,18.21
306640294237400,108067,-0.5563,-9.0365,4.3238,0.0195,-0.0611,-0.0305,18.21
306640305301500,108079,-0.5587,-9.0353,4.3214,0.0195,-0.0611,-0.0305,18.20
306640316370900,108090,-0.5623,-9.0377,4.3262,0.0195,-0.0611,-0.0305,18.20
306640328071600,108101,-0.5503,-9.0509,4.3178,0.0195,-0.0599,-0.0305,18.21
306640339190600,108112,-0.5575,-9.0293,4.3155,0.0208,-0.0599,-0.0305,18.22
306640350309100,108124,-0.5551,-9.0437,4.3202,0.0208,-0.0599,-0.0305,18.22
306640361399100,108135,-0.5623,-9.0317,4.3214,0.0220,-0.0599,-0.0305,18.18
306640373084400,108146,-0.5492,-9.0389,4.3238,0.0220,-0.0599,-0.0293,18.18
306640384257200,108157,-0.5551,-9.0401,4.3250,0.0232,-0.0611,-0.0293,18.19
306640395298300,108169,-0.5563,-9.0341,4.3262,0.0220,-0.0611,-0.0305,18.19
306640406494200,108180,-0.5587,-9.0341,4.3262,0.0220,-0.0611,-0.0305,18.25
306640418152600,108191,-0.5575,-9.0389,4.3250,0.0208,-0.0611,-0.0305,18.23
306640429232800,108203,-0.5587,-9.0377,4.3286,0.0183,-0.0611,-0.0305,18.23
306640440344500,108214,-0.5575,-9.0317,4.3286,0.0171,-0.0611,-0.0305,18.26
306640451384100,108225,-0.5623,-9.0305,4.3250,0.0171,-0.0623,-0.0318,18.26
306640463131900,108236,-0.5635,-9.0329,4.3178,0.0171,-0.0611,-0.0305,18.23
306640474321800,108248,-0.5647,-9.0401,4.3167,0.0171,-0.0611,-0.0305,18.23
306640485354000,108259,-0.5611,-9.0329,4.3143,0.0171,-0.0599,-0.0305,18.23
306640496930600,108270,-0.5719,-9.0437,4.3334,0.0183,-0.0599,-0.0305,18.23
306640508216300,108281,-0.5468,-9.0437,4.3047,0.0183,-0.0611,-0.0318,18.23
306640519256000,108293,-0.5587,-9.0257,4.3310,0.0208,-0.0611,-0.0293,18.22
306640530304100,108304,-0.5480,-9.0485,4.3190,0.0208,-0.0611,-0.0305,18.22
306640542120400,108315,-0.5503,-9.0353,4.3107,0.0244,-0.0599,-0.0293,18.21
306640553149100,108326,-0.5515,-9.0413,4.3286,0.0269,-0.0599,-0.0293,18.21
306640564211700,108338,-0.5623,-9.0353,4.3143,0.0244,-0.0599,-0.0293,18.23
306640575334000,108349,-0.5671,-9.0497,4.3202,0.0220,-0.0599,-0.0305,18.23
306640587120300,108360,-0.5767,-9.0305,4.3298,0.0232,-0.0599,-0.0293,18.28
306640598180700,108371,-0.5635,-9.0401,4.3358,0.0208,-0.0599,-0.0293,18.22
306640609467600,108383,-0.5635,-9.0257,4.3274,0.0208,-0.0599,-0.0293,18.22
306640620329100,108394,-0.5599,-9.0377,4.3238,0.0183,-0.0611,-0.0305,18.22
306640632141600,108405,-0.5551,-9.0281,4.3250,0.0208,-0.0611,-0.0305,18.22
306640643218700,108417,-0.5396,-9.0784,4.3202,0.0195,-0.0611,-0.0305,18.25
306640654266700,108428,-0.5611,-8.9707,4.3095,0.0232,-0.0599,-0.0293,18.25
306640665503900,108439,-0.5420,-9.1190,4.3226,0.0171,-0.0611,-0.0318,18.20
306640677232000,108450,-0.5695,-9.0844,4.3286,0.0257,-0.0599,-0.0318,18.20
306640688222500,108462,-0.5743,-9.0066,4.3322,0.0220,-0.0611,-0.0305,18.21
306640699434400,108473,-0.5623,-9.0461,4.3358,0.0183,-0.0611,-0.0305,18.23
306640711055900,108484,-0.5539,-9.0353,4.3214,0.0195,-0.0611,-0.0305,18.23
306640722233000,108495,-0.5599,-9.0162,4.3262,0.0208,-0.0599,-0.0305,18.22
306640733249400,108507,-0.5492,-9.0592,4.3358,0.0171,-0.0599,-0.0305,18.22
306640744400700,108518,-0.5492,-9.0174,4.3238,0.0183,-0.0611,-0.0305,18.23
306640756123900,108529,-0.5551,-9.0473,4.3262,0.0171,-0.0623,-0.0305,18.23
306640767212400,108540,-0.5635,-9.0497,4.3250,0.0183,-0.0611,-0.0305,18.22
306640778317600,108552,-0.5647,-9.0461,4.3167,0.0195,-0.0611,-0.0305,18.23
306640789477700,108563,-0.5659,-9.0425,4.3167,0.0208,-0.0611,-0.0305,18.23
306640801153800,108574,-0.5563,-9.0580,4.3214,0.0220,-0.0611,-0.0305,18.25
306640812261600,108585,-0.5456,-9.0329,4.3167,0.0232,-0.0599,-0.0293,18.25
306640823411000,108597,-0.5503,-9.0341,4.3143,0.0244,-0.0611,-0.0293,18.22
306640834529200,108608,-0.5551,-9.0269,4.3226,0.0232,-0.0611,-0.0293,18.22
306640846229700,108619,-0.5563,-9.0461,4.3322,0.0220,-0.0611,-0.0305,18.26
306640857269700,108631,-0.5587,-9.0401,4.3298,0.0208,-0.0599,-0.0305,18.21
306640868365900,108642,-0.5563,-9.0377,4.3262,0.0220,-0.0599,-0.0293,18.21
306640880095900,108653,-0.5575,-9.0497,4.3214,0.0208,-0.0611,-0.0305,18.27
306640891265700,108664,-0.5635,-9.0437,4.3202,0.0232,-0.0611,-0.0293,18.27
306640902276600,108676,-0.5731,-9.0341,4.3178,0.0244,-0.0611,-0.0293,18.26
306640913552100,108687,-0.5575,-9.0437,4.3155,0.0232,-0.0611,-0.0293,18.26
306640925072600,108698,-0.5743,-9.0233,4.3167,0.0232,-0.0599,-0.0293,18.24
306640936199500,108709,-0.5635,-9.0413,4.3214,0.0208,-0.0611,-0.0305,18.24
306640947353500,108721,-0.5515,-9.0281,4.3155,0.0183,-0.0611,-0.0305,18.20
306640958393700,108732,-0.5527,-9.0532,4.3214,0.0159,-0.0611,-0.0305,18.21
306640970146100,108743,-0.5551,-9.0425,4.3226,0.0171,-0.0611,-0.0305,18.21
306640981286600,108754,-0.5551,-9.0389,4.3262,0.0183,-0.0611,-0.0305,18.18
306640992458100,108766,-0.5659,-9.0401,4.3202,0.0208,-0.0611,-0.0293,18.18
306641003459900,108777,-0.5623,-9.0389,4.3274,0.0220,-0.0611,-0.0293,18.22
306641015143200,108788,-0.5647,-9.0257,4.3298,0.0208,-0.0611,-0.0305,18.22
306641026270800,108800,-0.5587,-9.0365,4.3214,0.0195,-0.0611,-0.0305,18.23
306641037367900,108811,-0.5575,-9.0425,4.3143,0.0195,-0.0611,-0.0305,18.25
306641049119200,108822,-0.5527,-9.0293,4.3178,0.0208,-0.0599,-0.0293,18.25
306641060233100,108833,-0.5503,-9.0401,4.3155,0.0208,-0.0599,-0.0305,18.25
306641071267300,108845,-0.5611,-9.0437,4.3214,0.0220,-0.0611,-0.0305,18.25
306641082350800,108856,-0.5623,-9.0401,4.3262,0.0220,-0.0611,-0.0293,18.21
306641094081000,108867,-0.5599,-9.0437,4.3202,0.0220,-0.0611,-0.0305,18.21
306641105110400,108878,-0.5623,-9.0365,4.3250,0.0232,-0.0599,-0.0293,18.24
306641116316100,108890,-0.5551,-9.0221,4.3274,0.0220,-0.0611,-0.0293,18.24
306641127383900,108901,-0.5456,-9.0305,4.3322,0.0183,-0.0611,-0.0305,18.29
306641139125700,108912,-0.5503,-9.0281,4.3250,0.0183,-0.0611,-0.0305,18.23
306641150275900,108923,-0.5527,-9.0341,4.3298,0.0171,-0.0611,-0.0305,18.23
306641161342900,108935,-0.5587,-9.0377,4.3226,0.0183,-0.0611,-0.0305,18.25
306641172464600,108946,-0.5635,-9.0305,4.3238,0.0195,-0.0611,-0.0293,18.25
306641184245200,108957,-0.5671,-9.0485,4.3214,0.0195,-0.0611,-0.0305,18.22
306641195330800,108968,-0.5671,-9.0353,4.3095,0.0208,-0.0611,-0.0305,18.22
306641206364400,108980,-0.5503,-9.0245,4.3202,0.0208,-0.0599,-0.0305,18.22
306641218072400,108991,-0.5587,-9.0461,4.3382,0.0183,-0.0611,-0.0318,18.26
306641229222700,109002,-0.5551,-9.0329,4.3274,0.0195,-0.0611,-0.0305,18.26
306641240288600,109014,-0.5551,-9.0485,4.3214,0.0183,-0.0611,-0.0305,18.20
306641251394400,109025,-0.5539,-9.0353,4.3143,0.0208,-0.0599,-0.0305,18.20
306641263115800,109036,-0.5527,-9.0485,4.3143,0.0195,-0.0599,-0.0305,18.23
306641274226000,109047,-0.5587,-9.0485,4.3155,0.0208,-0.0611,-0.0305,18.23
306641285312000,109059,-0.5671,-9.0401,4.3131,0.0232,-0.0599,-0.0305,18.25
306641296298000,109070,-0.5623,-9.0185,4.3346,0.0232,-0.0611,-0.0293,18.25
306641308151000,109081,-0.5587,-9.0401,4.3286,0.0208,-0.0611,-0.0293,18.29
306641319235500,109092,-0.5480,-9.0305,4.3226,0.0220,-0.0611,-0.0305,18.17
306641330315000,109104,-0.5647,-9.0317,4.3274,0.0208,-0.0599,-0.0305,18.17
306641341336200,109115,-0.5539,-9.0389,4.3238,0.0208,-0.0611,-0.0305,18.23
306641353197700,109126,-0.5551,-9.0245,4.3370,0.0208,-0.0611,-0.0293,18.23
306641364262000,109137,-0.5575,-9.0437,4.3274,0.0195,-0.0611,-0.0305,18.25
306641375206600,109149,-0.5707,-9.0305,4.3286,0.0208,-0.0611,-0.0305,18.25
306641386240500,109160,-0.5599,-9.0269,4.3238,0.0195,-0.0611,-0.0305,18.22
306641398165400,109171,-0.5587,-9.0353,4.3262,0.0195,-0.0611,-0.0305,18.23
306641409215000,109182,-0.5551,-9.0353,4.3095,0.0195,-0.0599,-0.0305,18.23
306641420346500,109194,-0.5599,-9.0329,4.3190,0.0183,-0.0611,-0.0293,18.23
306641432077800,109205,-0.5515,-9.0425,4.3274,0.0195,-0.0611,-0.0305,18.23
306641443233300,109216,-0.5611,-9.0353,4.3238,0.0208,-0.0599,-0.0305,18.25
306641454316600,109228,-0.5515,-9.0449,4.3286,0.0208,-0.0611,-0.0305,18.25
306641465405300,109239,-0.5611,-9.0293,4.3178,0.0208,-0.0599,-0.0293,18.22
306641477068500,109250,-0.5671,-9.0389,4.3238,0.0195,-0.0611,-0.0305,18.20
306641488244200,109261,-0.5587,-9.0317,4.3226,0.0183,-0.0599,-0.0305,18.20
306641499257400,109273,-0.5551,-9.0497,4.3155,0.0183,-0.0611,-0.0305,18.23
306641510304000,109284,-0.5527,-9.0293,4.3131,0.0195,-0.0611,-0.0305,18.23
306641522146600,109295,-0.5551,-9.0485,4.3334,0.0195,-0.0611,-0.0305,18.24
306641533272500,109306,-0.5599,-9.0269,4.3274,0.0208,-0.0611,-0.0305,18.24
306641544386800,109318,-0.5599,-9.0389,4.3214,0.0195,-0.0611,-0.0293,18.24
306641555502700,109329,-0.5480,-9.0509,4.3155,0.0195,-0.0611,-0.0293,18.24
306641567232300,109340,-0.5659,-9.0497,4.3214,0.0195,-0.0611,-0.0305,18.21
306641578178500,109351,-0.5659,-9.0305,4.3131,0.0208,-0.0611,-0.0305,18.24
306641589302400,109363,-0.5587,-9.0449,4.3143,0.0195,-0.0611,-0.0293,18.24
306641601082400,109374,-0.5599,-9.0377,4.3298,0.0195,-0.0611,-0.0293,18.22
306641612235500,109385,-0.5563,-9.0389,4.3262,0.0195,-0.0611,-0.0305,18.22
306641623442500,109396,-0.5503,-9.0461,4.3238,0.0208,-0.0611,-0.0305,18.21
306641634380200,109408,-0.5599,-9.0329,4.3178,0.0232,-0.0611,-0.0293,18.21
306641646090600,109419,-0.5623,-9.0185,4.3250,0.0220,-0.0611,-0.0305,18.23
306641657224500,109430,-0.5575,-9.0401,4.3214,0.0195,-0.0611,-0.0305,18.23
306641668291700,109442,-0.5539,-9.0425,4.3262,0.0183,-0.0611,-0.0305,18.23
306641679362600,109453,-0.5480,-9.0425,4.3131,0.0183,-0.0611,-0.0305,18.25
306641691116200,109464,-0.5456,-9.0520,4.3178,0.0183,-0.0611,-0.0305,18.25
306641702248300,109475,-0.5587,-9.0413,4.3083,0.0195,-0.0611,-0.0293,18.23
306641713311300,109487,-0.5611,-9.0509,4.3143,0.0208,-0.0611,-0.0305,18.23
306641724448500,109498,-0.5659,-9.0389,4.3071,0.0220,-0.0599,-0.0305,18.24
306641736116300,109509,-0.5623,-9.0293,4.3262,0.0232,-0.0599,-0.0293,18.24
306641747374200,109520,-0.5623,-9.0389,4.3143,0.0208,-0.0599,-0.0293,18.22
306641758225300,109532,-0.5635,-9.0485,4.3322,0.0208,-0.0599,-0.0293,18.22
306641769414800,109543,-0.5420,-9.0329,4.3167,0.0183,-0.0599,-0.0293,18.22
306641781208800,109554,-0.5420,-9.0449,4.3202,0.0183,-0.0611,-0.0305,18.24
306641792278300,109565,-0.5587,-9.0401,4.3298,0.0195,-0.0611,-0.0305,18.24
306641803377800,109577,-0.5611,-9.0341,4.3190,0.0208,-0.0611,-0.0305,18.26
306641815069100,109588,-0.5527,-9.0413,4.3322,0.0208,-0.0599,-0.0305,18.26
306641826160800,109599,-0.5599,-9.0473,4.3178,0.0220,-0.0599,-0.0305,18.23
306641837275800,109611,-0.5683,-9.0365,4.3214,0.0220,-0.0611,-0.0305,18.25
306641848404000,109622,-0.5599,-9.0377,4.3262,0.0208,-0.0611,-0.0305,18.25
306641860092600,109633,-0.5647,-9.0221,4.3286,0.0208,-0.0599,-0.0305,18.20
306641871188600,109644,-0.5551,-9.0461,4.3226,0.0208,-0.0611,-0.0305,18.20
306641882334300,109656,-0.5503,-9.0485,4.3190,0.0195,-0.0611,-0.0305,18.22
306641893437800,109667,-0.5539,-9.0245,4.3274,0.0183,-0.0611,-0.0293,18.22
306641905115100,109678,-0.5647,-9.0473,4.3238,0.0183,-0.0611,-0.0305,18.22
306641916213300,109689,-0.5587,-9.0449,4.3107,0.0195,-0.0611,-0.0305,18.22
306641927404000,109701,-0.5611,-9.0413,4.3059,0.0195,-0.0599,-0.0293,18.23
306641938336000,109712,-0.5599,-9.0293,4.3071,0.0195,-0.0599,-0.0305,18.26
306641950157000,109723,-0.5587,-9.0425,4.3167,0.0183,-0.0599,-0.0305,18.26
306641961359700,109734,-0.5647,-9.0329,4.3382,0.0208,-0.0599,-0.0293,18.24
306641972345300,109746,-0.5611,-9.0437,4.3274,0.0208,-0.0599,-0.0305,18.24
306641983464900,109757,-0.5515,-9.0413,4.3202,0.0208,-0.0599,-0.0293,18.21
306641995221200,109768,-0.5599,-9.0353,4.3274,0.0195,-0.0599,-0.0305,18.21
306642006271500,109779,-0.5623,-9.0520,4.3155,0.0195,-0.0611,-0.0305,18.22
306642017412600,109791,-0.5539,-9.0425,4.3131,0.0195,-0.0599,-0.0305,18.26
306642029104400,109802,-0.5492,-9.0509,4.3167,0.0195,-0.0611,-0.0305,18.26
306642040227300,109813,-0.5563,-9.0425,4.3107,0.0208,-0.0611,-0.0305,18.25
306642051291900,109825,-0.5731,-9.0437,4.3202,0.0208,-0.0611,-0.0305,18.25
306642062370400,109836,-0.5683,-9.0317,4.3262,0.0232,-0.0611,-0.0305,18.23
306642074100100,109847,-0.5611,-9.0401,4.3286,0.0208,-0.0611,-0.0305,18.23
306642085045700,109858,-0.5539,-9.0245,4.3131,0.0208,-0.0611,-0.0305,18.26
306642096225400,109870,-0.5551,-8.9910,4.3095,0.0232,-0.0599,-0.0293,18.26
306642107346800,109881,-0.5575,-9.0592,4.3274,0.0183,-0.0611,-0.0293,18.24
306642119179800,109892,-0.5611,-9.0305,4.3202,0.0232,-0.0599,-0.0305,18.22
306642130235300,109903,-0.5575,-9.0329,4.3107,0.0220,-0.0599,-0.0305,18.22
306642141303000,109915,-0.5623,-9.0401,4.3286,0.0220,-0.0611,-0.0305,18.23
306642152297700,109926,-0.5647,-9.0305,4.3286,0.0220,-0.0599,-0.0293,18.23
306642164202100,109937,-0.5659,-9.0509,4.3322,0.0220,-0.0611,-0.0305,18.22
306642175413300,109948,-0.5623,-9.0353,4.3298,0.0232,-0.0599,-0.0293,18.22
306642186370600,109960,-0.5551,-9.0389,4.3250,0.0183,-0.0611,-0.0293,18.27
306642198096600,109971,-0.5611,-9.0377,4.3226,0.0183,-0.0599,-0.0305,18.22
306642209096600,109982,-0.5695,-9.0353,4.3286,0.0195,-0.0611,-0.0305,18.22
306642220184500,109993,-0.5599,-9.0329,4.3131,0.0208,-0.0599,-0.0293,18.25
306642231272500,110005,-0.5659,-9.0425,4.3167,0.0195,-0.0611,-0.0305,18.25
306642243144700,110016,-0.5623,-9.0329,4.3202,0.0208,-0.0599,-0.0305,18.24
306642254249000,110027,-0.5599,-9.0401,4.3298,0.0208,-0.0599,-0.0293,18.24
306642265249100,110039,-0.5599,-9.0281,4.3238,0.0208,-0.0611,-0.0293,18.22
306642276441400,110050,-0.5659,-9.0413,4.3310,0.0183,-0.0611,-0.0293,18.25
306642288117400,110061,-0.5468,-9.0245,4.3083,0.0208,-0.0599,-0.0305,18.25
306642299184800,110072,-0.5635,-9.0544,4.3202,0.0220,-0.0611,-0.0305,18.23
306642310120100,110084,-0.5599,-9.0281,4.3226,0.0232,-0.0599,-0.0293,18.23
306642321331100,110095,-0.5527,-9.0365,4.3214,0.0220,-0.0599,-0.0293,18.21
306642333113100,110106,-0.5611,-9.0413,4.3274,0.0220,-0.0599,-0.0305,18.21
306642344304800,110117,-0.5647,-9.0353,4.3178,0.0220,-0.0611,-0.0305,18.23
306642355347400,110129,-0.5671,-9.0293,4.3286,0.0220,-0.0599,-0.0305,18.23
306642366342400,110140,-0.5551,-9.0532,4.3143,0.0171,-0.0611,-0.0305,18.24
306642378369700,110151,-0.5575,-9.0544,4.3238,0.0183,-0.0611,-0.0305,18.24
306642389381200,110162,-0.5623,-9.0389,4.3131,0.0208,-0.0611,-0.0293,18.24
306642400370300,110174,-0.5599,-9.0413,4.3226,0.0195,-0.0611,-0.0305,18.25
306642412142800,110185,-0.5659,-9.0401,4.3226,0.0195,-0.0611,-0.0305,18.25
306642423330300,110196,-0.5671,-9.0425,4.3202,0.0208,-0.0599,-0.0305,18.25
306642434326200,110208,-0.5503,-9.0377,4.3286,0.0208,-0.0599,-0.0305,18.25
306642445417200,110219,-0.5539,-9.0544,4.3226,0.0195,-0.0611,-0.0305,18.25
306642457105900,110230,-0.5563,-9.0365,4.3298,0.0220,-0.0599,-0.0305,18.26
306642468230700,110241,-0.5492,-9.0485,4.3178,0.0232,-0.0611,-0.0305,18.26
306642479311200,110253,-0.5539,-9.0269,4.3274,0.0220,-0.0599,-0.0305,18.21
306642490429800,110264,-0.5623,-9.0473,4.3214,0.0183,-0.0611,-0.0305,18.21
306642502184900,110275,-0.5515,-9.0509,4.3143,0.0208,-0.0599,-0.0305,18.25
306642513195800,110286,-0.5719,-9.0341,4.3143,0.0208,-0.0599,-0.0293,18.25
306642524333400,110298,-0.5503,-9.0401,4.3155,0.0195,-0.0611,-0.0305,18.22
306642535349700,110309,-0.5611,-9.0413,4.3178,0.0220,-0.0599,-0.0305,18.22
306642547171800,110320,-0.5623,-9.0329,4.3202,0.0232,-0.0599,-0.0293,18.25
306642558242100,110331,-0.5635,-9.0497,4.3226,0.0208,-0.0599,-0.0305,18.27
306642569314900,110343,-0.5671,-9.0185,4.3238,0.0232,-0.0599,-0.0293,18.27
306642580431900,110354,-0.5647,-9.0461,4.3190,0.0208,-0.0599,-0.0305,18.22
306642592242000,110365,-0.5671,-9.0233,4.3226,0.0195,-0.0599,-0.0305,18.22
306642603228100,110376,-0.5468,-9.0281,4.3167,0.0171,-0.0611,-0.0305,18.29
306642614317300,110388,-0.5611,-9.0401,4.3143,0.0159,-0.0611,-0.0318,18.29
306642626124500,110399,-0.5551,-9.0461,4.3190,0.0171,-0.0611,-0.0318,18.19
306642637220400,110410,-0.5659,-9.0401,4.3262,0.0183,-0.0611,-0.0305,18.23
306642648332800,110422,-0.5575,-9.0377,4.3250,0.0183,-0.0623,-0.0318,18.23
306642659405300,110433,-0.5587,-9.0437,4.3286,0.0195,-0.0611,-0.0318,18.21
306642671117400,110444,-0.5611,-9.0485,4.3107,0.0183,-0.0611,-0.0318,18.21
306642682234900,110455,-0.5659,-9.0162,4.3274,0.0195,-0.0599,-0.0293,18.26
306642693233500,110467,-0.5503,-9.0939,4.3250,0.0171,-0.0611,-0.0305,18.26
306642704328200,110478,-0.5827,-8.9743,4.3226,0.0232,-0.0599,-0.0293,18.23
306642716159800,110489,-0.5587,-9.0066,4.3178,0.0257,-0.0599,-0.0293,18.23
306642727291100,110500,-0.5515,-9.0425,4.3238,0.0220,-0.0599,-0.0305,18.26
306642738315700,110512,-0.5563,-9.0509,4.3155,0.0208,-0.0599,-0.0305,18.23
306642749458500,110523,-0.5539,-9.0221,4.3202,0.0220,-0.0611,-0.0305,18.23
306642761213300,110534,-0.5515,-9.0425,4.3214,0.0232,-0.0599,-0.0293,18.25
306642772294600,110545,-0.5731,-9.0174,4.3250,0.0244,-0.0599,-0.0293,18.25
306642783465300,110557,-0.5647,-9.0413,4.3358,0.0208,-0.0599,-0.0293,18.24
306642795060700,110568,-0.5635,-9.0353,4.3202,0.0208,-0.0611,-0.0293,18.24
306642806230300,110579,-0.5563,-9.0329,4.3238,0.0208,-0.0611,-0.0293,18.25
306642817305100,110590,-0.5456,-9.0437,4.3238,0.0195,-0.0599,-0.0293,18.26
306642828175600,110602,-0.5539,-9.0281,4.3143,0.0195,-0.0599,-0.0293,18.26
306642840101700,110613,-0.5515,-9.0820,4.3178,0.0208,-0.0599,-0.0305,18.25
306642851234200,110624,-0.5671,-8.9886,4.3035,0.0257,-0.0599,-0.0281,18.25
306642862327400,110636,-0.5575,-9.1107,4.3262,0.0220,-0.0611,-0.0305,18.25
306642873458800,110647,-0.5791,-8.9815,4.3190,0.0269,-0.0599,-0.0281,18.25
306642885182700,110658,-0.5683,-9.0652,4.3298,0.0220,-0.0599,-0.0305,18.23
306642896182300,110669,-0.5707,-9.0221,4.3310,0.0257,-0.0586,-0.0293,18.26
306642907264500,110681,-0.5563,-9.0520,4.3238,0.0257,-0.0599,-0.0281,18.26
306642918528400,110692,-0.5515,-9.0126,4.3250,0.0269,-0.0586,-0.0269,18.26
306642930276900,110703,-0.5396,-9.0616,4.3310,0.0232,-0.0599,-0.0281,18.26
306642941301500,110714,-0.5468,-9.0269,4.3202,0.0281,-0.0599,-0.0269,18.23
306642952402200,110726,-0.5599,-9.0365,4.3238,0.0293,-0.0586,-0.0269,18.23
306642964109400,110737,-0.5623,-9.0401,4.3143,0.0281,-0.0586,-0.0269,18.24
306642975319200,110748,-0.5719,-9.0640,4.3202,0.0305,-0.0586,-0.0269,18.24
306642986311300,110759,-0.5743,-9.0317,4.3286,0.0391,-0.0586,-0.0232,18.22
306642997359100,110771,-0.5611,-9.0520,4.3262,0.0367,-0.0586,-0.0244,18.25
306643009165300,110782,-0.5731,-9.0078,4.3274,0.0367,-0.0586,-0.0232,18.25
306643020158800,110793,-0.5695,-9.0353,4.3418,0.0305,-0.0586,-0.0269,18.23
306643031369200,110804,-0.5791,-9.0066,4.3478,0.0281,-0.0586,-0.0281,18.23
306643042576400,110816,-0.5599,-9.0425,4.3525,0.0183,-0.0611,-0.0293,18.20
306643054208700,110827,-0.5695,-9.0209,4.3418,0.0159,-0.0611,-0.0305,18.20
306643065209100,110838,-0.5515,-9.0425,4.3238,0.0147,-0.0611,-0.0330,18.25
306643076353400,110850,-0.5539,-9.0377,4.3262,0.0195,-0.0599,-0.0305,18.25
306643087368000,110861,-0.5145,-9.0604,4.2867,0.0208,-0.0586,-0.0330,18.25
306643099049100,110872,-0.4295,-8.9037,4.2126,-0.0049,-0.0354,-0.0513,18.24
306643110255100,110883,-0.6138,-9.2459,4.3741,-0.0305,-0.0073,-0.0770,18.24
306643121279100,110895,-0.6532,-8.8774,4.3896,0.0269,-0.0281,-0.0464,18.23
306643133113800,110906,-0.5815,-9.0951,4.3573,0.0049,-0.0464,-0.0452,18.23
306643144227100,110917,-0.5791,-8.9767,4.3430,0.0183,-0.0562,-0.0354,18.24
306643155278300,110928,-0.5527,-9.0425,4.3214,0.0110,-0.0586,-0.0330,18.24
306643166359900,110940,-0.5444,-9.0353,4.3310,0.0147,-0.0599,-0.0330,18.27
306643178123100,110951,-0.5527,-9.0592,4.3095,0.0171,-0.0599,-0.0318,18.25
306643189253200,110962,-0.5647,-9.0245,4.3178,0.0220,-0.0599,-0.0305,18.25
306643200273600,110973,-0.5468,-9.0688,4.3155,0.0244,-0.0586,-0.0305,18.25
306643211388100,110985,-0.5432,-9.0341,4.3059,0.0318,-0.0574,-0.0293,18.25
306643223171900,110996,-0.5252,-8.9898,4.2927,0.0195,-0.0452,-0.0379,18.23
306643234272200,111007,-0.5898,-9.1238,4.3442,0.0086,-0.0354,-0.0464,18.23
306643245361300,111019,-0.5551,-9.0796,4.3274,0.0330,-0.0501,-0.0342,18.25
306643256455300,111030,-0.5599,-9.0317,4.3250,0.0281,-0.0525,-0.0318,18.21
306643268224200,111041,-0.5492,-9.0269,4.3298,0.0257,-0.0550,-0.0305,18.21
306643279190700,111052,-0.5480,-9.0401,4.3178,0.0257,-0.0525,-0.0305,18.25
306643290338500,111064,-0.5324,-9.0209,4.3202,0.0269,-0.0489,-0.0330,18.25
306643301661900,111075,-0.5575,-9.0544,4.3226,0.0183,-0.0403,-0.0403,18.25
306643313214600,111086,-0.5922,-9.0185,4.3466,0.0232,-0.0403,-0.0391,18.25
306643324111800,111097,-0.5803,-9.0461,4.3513,0.0244,-0.0464,-0.0354,18.27
306643335306500,111109,-0.5635,-9.0389,4.3442,0.0232,-0.0550,-0.0330,18.27
306643347130800,111120,-0.5659,-9.0544,4.3131,0.0208,-0.0562,-0.0318,18.22
306643358167700,111131,-0.5827,-9.0006,4.3358,0.0232,-0.0574,-0.0305,18.24
306643369328700,111142,-0.5671,-9.0580,4.3406,0.0159,-0.0599,-0.0318,18.24
306643380634000,111154,-0.5563,-9.0209,4.3298,0.0171,-0.0599,-0.0318,18.23
306643392157300,111165,-0.5456,-9.0473,4.3358,0.0159,-0.0599,-0.0318,18.23
306643403290400,111176,-0.5372,-9.0461,4.3143,0.0183,-0.0599,-0.0318,18.25
306643414361400,111187,-0.5468,-9.0449,4.3178,0.0232,-0.0611,-0.0305,18.25
306643425425700,111199,-0.5587,-9.0437,4.3119,0.0293,-0.0586,-0.0293,18.27
306643437182400,111210,-0.4929,-8.9169,4.2652,0.0171,-0.0464,-0.0403,18.22
306643448317800,111221,-0.6425,-9.1956,4.3633,-0.0171,-0.0244,-0.0611,18.22
306643459403400,111233,-0.6090,-8.9037,4.3741,0.0305,-0.0452,-0.0354,18.27
306643471103800,111244,-0.5539,-9.1202,4.3047,0.0122,-0.0562,-0.0367,18.27
306643482214800,111255,-0.5635,-8.9982,4.3442,0.0244,-0.0562,-0.0318,18.21
306643493250000,111266,-0.5420,-9.0341,4.3226,0.0195,-0.0562,-0.0330,18.21
306643504362800,111278,-0.5492,-9.0245,4.3466,0.0171,-0.0574,-0.0330,18.26
306643516065700,111289,-0.5551,-9.0257,4.3262,0.0183,-0.0586,-0.0318,18.25
306643527190300,111300,-0.5611,-9.0389,4.3334,0.0183,-0.0599,-0.0318,18.25
306643538250700,111311,-0.5623,-9.0437,4.3262,0.0208,-0.0599,-0.0318,18.25
306643549379000,111323,-0.5444,-9.0556,4.3095,0.0232,-0.0586,-0.0318,18.25
306643561120100,111334,-0.5157,-8.9779,4.2760,0.0195,-0.0525,-0.0342,18.26
306643572212200,111345,-0.5910,-9.1226,4.3322,0.0037,-0.0452,-0.0440,18.26
306643583334900,111356,-0.5779,-8.9850,4.3490,0.0232,-0.0525,-0.0342,18.24
306643594522200,111368,-0.5539,-9.0437,4.3214,0.0183,-0.0574,-0.0318,18.24
306643606263000,111379,-0.5527,-9.0197,4.3155,0.0220,-0.0586,-0.0305,18.23
306643617234800,111390,-0.5527,-9.0449,4.3202,0.0208,-0.0586,-0.0318,18.27
306643628189300,111401,-0.5587,-9.0138,4.3262,0.0195,-0.0574,-0.0318,18.27
306643640120900,111413,-0.5623,-9.0413,4.3274,0.0159,-0.0574,-0.0330,18.28
306643651231100,111424,-0.5623,-9.0389,4.3274,0.0159,-0.0586,-0.0330,18.28
306643662288600,111435,-0.5587,-9.0413,4.3202,0.0159,-0.0599,-0.0305,18.25
306643673357900,111447,-0.5551,-9.0473,4.3226,0.0183,-0.0611,-0.0305,18.25
306643685120600,111458,-0.5563,-9.0497,4.3167,0.0183,-0.0611,-0.0318,18.29
306643696100900,111469,-0.5575,-9.0329,4.3155,0.0195,-0.0599,-0.0305,18.23
306643707222300,111480,-0.5551,-9.0497,4.3083,0.0183,-0.0599,-0.0318,18.23
306643718338500,111492,-0.5611,-9.0401,4.3226,0.0195,-0.0599,-0.0305,18.25
306643730125700,111503,-0.5671,-9.0449,4.3190,0.0195,-0.0611,-0.0305,18.25
306643741307200,111514,-0.5456,-9.0353,4.3202,0.0195,-0.0611,-0.0305,18.25
306643752337000,111525,-0.5480,-9.0389,4.3250,0.0183,-0.0611,-0.0305,18.25
306643763427100,111537,-0.5599,-9.0293,4.3214,0.0183,-0.0599,-0.0305,18.26
306643775185300,111548,-0.5611,-9.0389,4.3250,0.0183,-0.0599,-0.0305,18.26
306643786315800,111559,-0.5503,-9.0377,4.3334,0.0183,-0.0611,-0.0305,18.26
306643797435700,111570,-0.5563,-9.0413,4.3167,0.0171,-0.0611,-0.0305,18.25
306643809058100,111582,-0.5527,-9.0353,4.3250,0.0171,-0.0611,-0.0305,18.25
306643820150400,111593,-0.5539,-9.0353,4.3167,0.0183,-0.0611,-0.0305,18.27
306643831342600,111604,-0.5563,-9.0413,4.3190,0.0183,-0.0599,-0.0305,18.27
306643842409900,111616,-0.5587,-9.0329,4.3202,0.0195,-0.0611,-0.0305,18.27
306643854079600,111627,-0.5503,-9.0473,4.3167,0.0183,-0.0611,-0.0305,18.27
306643865216900,111638,-0.5503,-9.0461,4.3131,0.0183,-0.0611,-0.0305,18.26
306643876328000,111649,-0.5599,-9.0473,4.3190,0.0195,-0.0611,-0.0305,18.27
306643887400100,111661,-0.5635,-9.0401,4.3107,0.0183,-0.0611,-0.0305,18.27
306643899158700,111672,-0.5587,-9.0365,4.3238,0.0195,-0.0611,-0.0305,18.27
306643910233500,111683,-0.5647,-9.0389,4.3178,0.0208,-0.0611,-0.0305,18.27
306643921325300,111694,-0.5527,-9.0473,4.3131,0.0208,-0.0599,-0.0305,18.25
306643932342400,111706,-0.5551,-9.0353,4.3202,0.0220,-0.0599,-0.0305,18.25
306643944121000,111717,-0.5575,-9.0389,4.3107,0.0208,-0.0599,-0.0305,18.28
306643955334400,111728,-0.5515,-9.0413,4.3190,0.0183,-0.0611,-0.0305,18.28
306643966345400,111739,-0.5539,-9.0305,4.3250,0.0183,-0.0611,-0.0305,18.24
306643977452400,111751,-0.5563,-9.0353,4.3167,0.0195,-0.0611,-0.0305,18.23
306643989187800,111762,-0.5623,-9.0389,4.3214,0.0195,-0.0611,-0.0305,18.23
306644000271900,111773,-0.5527,-9.0401,4.3167,0.0208,-0.0611,-0.0305,18.21
306644011380300,111784,-0.5527,-9.0389,4.3178,0.0208,-0.0611,-0.0305,18.21
306644023059900,111796,-0.5599,-9.0365,4.3107,0.0220,-0.0611,-0.0305,18.23
306644034212500,111807,-0.5587,-9.0401,4.3167,0.0220,-0.0599,-0.0305,18.23
306644045270900,111818,-0.5503,-9.0365,4.3274,0.0195,-0.0611,-0.0318,18.27
306644056359900,111830,-0.5503,-9.0389,4.3238,0.0183,-0.0611,-0.0318,18.26
306644068104800,111841,-0.5575,-9.0353,4.3274,0.0171,-0.0611,-0.0318,18.26
306644079245000,111852,-0.5611,-9.0377,4.3131,0.0171,-0.0611,-0.0305,18.27
306644090300200,111863,-0.5575,-9.0473,4.3071,0.0171,-0.0611,-0.0305,18.27
306644101365800,111875,-0.5503,-9.0437,4.3107,0.0171,-0.0611,-0.0305,18.28
306644113195900,111886,-0.5599,-9.0413,4.3143,0.0183,-0.0611,-0.0305,18.28
306644124245700,111897,-0.5587,-9.0401,4.3167,0.0183,-0.0599,-0.0305,18.23
306644135410900,111908,-0.5515,-9.0317,4.3071,0.0183,-0.0611,-0.0305,18.27
306644146319500,111920,-0.5480,-9.0377,4.3095,0.0195,-0.0611,-0.0293,18.27
306644158285000,111931,-0.5587,-9.0389,4.3178,0.0195,-0.0611,-0.0305,18.25
306644169428300,111942,-0.5468,-9.0413,4.3083,0.0195,-0.0611,-0.0305,18.25
306644180617100,111953,-0.5599,-9.0389,4.3178,0.0195,-0.0611,-0.0305,18.25
306644192159500,111965,-0.5623,-9.0389,4.3131,0.0195,-0.0611,-0.0293,18.25
306644203296500,111976,-0.5539,-9.0425,4.3143,0.0195,-0.0611,-0.0305,18.25
306644214396000,111987,-0.5575,-9.0377,4.3155,0.0208,-0.0611,-0.0305,18.25
306644225497400,111998,-0.5492,-9.0389,4.3214,0.0195,-0.0611,-0.0305,18.22
306644237194000,112010,-0.5515,-9.0473,4.3083,0.0195,-0.0611,-0.0305,18.25
306644248195400,112021,-0.5539,-9.0377,4.3107,0.0195,-0.0611,-0.0305,18.25
306644259334300,112032,-0.5456,-9.0425,4.3035,0.0208,-0.0611,-0.0305,18.26
306644270347400,112044,-0.5492,-9.0497,4.3011,0.0208,-0.0611,-0.0305,18.26
306644282189700,112055,-0.5551,-9.0449,4.3143,0.0208,-0.0611,-0.0305,18.25
306644293315000,112066,-0.5587,-9.0377,4.3167,0.0195,-0.0611,-0.0305,18.25
306644304397100,112077,-0.5551,-9.0377,4.3155,0.0208,-0.0599,-0.0305,18.23
306644315562400,112089,-0.5635,-9.0389,4.3178,0.0195,-0.0611,-0.0305,18.25
306644327324700,112100,-0.5575,-9.0497,4.3071,0.0195,-0.0611,-0.0305,18.25
306644338333900,112111,-0.5527,-9.0449,4.3095,0.0195,-0.0599,-0.0305,18.25
306644349504300,112122,-0.5360,-9.0449,4.3047,0.0195,-0.0611,-0.0305,18.25
306644361115000,112134,-0.5444,-9.0413,4.3119,0.0195,-0.0611,-0.0305,18.24
306644372231500,112145,-0.5563,-9.0365,4.3131,0.0195,-0.0611,-0.0318,18.24
306644383383000,112156,-0.5587,-9.0365,4.3214,0.0208,-0.0611,-0.0318,18.29
306644394482500,112167,-0.5611,-9.0365,4.3131,0.0195,-0.0611,-0.0305,18.29
306644406209800,112179,-0.5468,-9.0497,4.3119,0.0208,-0.0611,-0.0305,18.25
306644417349100,112190,-0.5503,-9.0461,4.3178,0.0208,-0.0599,-0.0305,18.24
306644428334200,112201,-0.5468,-9.0341,4.2987,0.0208,-0.0599,-0.0305,18.24
306644439468700,112212,-0.5420,-9.0449,4.3023,0.0195,-0.0611,-0.0305,18.27
306644451294400,112224,-0.5575,-9.0473,4.3047,0.0195,-0.0611,-0.0305,18.27
306644462444300,112235,-0.5563,-9.0497,4.3119,0.0195,-0.0611,-0.0305,18.23
306644473481200,112246,-0.5563,-9.0461,4.3178,0.0195,-0.0611,-0.0318,18.23
306644484621500,112258,-0.5563,-9.0473,4.3167,0.0208,-0.0611,-0.0305,18.25
306644496280000,112269,-0.5551,-9.0413,4.3155,0.0208,-0.0599,-0.0305,18.27
306644507389100,112280,-0.5539,-9.0449,4.3035,0.0208,-0.0611,-0.0305,18.27
306644518537700,112291,-0.5444,-9.0401,4.2987,0.0208,-0.0599,-0.0305,18.26
306644530103800,112303,-0.5503,-9.0449,4.3119,0.0208,-0.0611,-0.0305,18.26
306644541467900,112314,-0.5599,-9.0449,4.3226,0.0208,-0.0599,-0.0305,18.24
306644552397700,112325,-0.5515,-9.0520,4.3202,0.0208,-0.0599,-0.0305,18.24
306644563592500,112336,-0.5503,-9.0413,4.3107,0.0208,-0.0599,-0.0305,18.27
306644575103700,112348,-0.5539,-9.0437,4.3250,0.0208,-0.0611,-0.0305,18.27
306644586226700,112359,-0.5503,-9.0413,4.3131,0.0208,-0.0611,-0.0305,18.23
306644597342500,112370,-0.5635,-9.0580,4.3083,0.0195,-0.0599,-0.0305,18.25
306644608490000,112381,-0.5551,-9.0377,4.3095,0.0208,-0.0611,-0.0305,18.25
306644620037900,112393,-0.5659,-9.0389,4.3071,0.0208,-0.0599,-0.0293,18.24
306644631138300,112404,-0.5623,-9.0437,4.3167,0.0208,-0.0599,-0.0305,18.24
306644642368000,112415,-0.5563,-9.0425,4.3143,0.0208,-0.0599,-0.0305,18.23
306644653530700,112427,-0.5432,-9.0389,4.3190,0.0208,-0.0599,-0.0305,18.23
306644665270200,112438,-0.5575,-9.0425,4.3238,0.0195,-0.0599,-0.0293,18.25
306644676386800,112449,-0.5527,-9.0377,4.3155,0.0195,-0.0611,-0.0305,18.28
306644687389900,112460,-0.5503,-9.0520,4.3047,0.0195,-0.0599,-0.0305,18.28
306644698608500,112472,-0.5432,-9.0461,4.3047,0.0208,-0.0611,-0.0305,18.26
306644710367300,112483,-0.5515,-9.0437,4.2999,0.0195,-0.0599,-0.0305,18.26
306644721321800,112494,-0.5515,-9.0389,4.3119,0.0195,-0.0611,-0.0305,18.27
306644732345800,112505,-0.5539,-9.0437,4.3107,0.0208,-0.0611,-0.0305,18.27
306644744062000,112517,-0.5587,-9.0401,4.3155,0.0195,-0.0599,-0.0305,18.22
306644755270400,112528,-0.5551,-9.0449,4.3226,0.0208,-0.0611,-0.0305,18.25
306644766411600,112539,-0.5599,-9.0461,4.3167,0.0195,-0.0599,-0.0305,18.25
306644777656100,112550,-0.5563,-9.0425,4.3083,0.0195,-0.0599,-0.0305,18.26
306644789170600,112562,-0.5551,-9.0449,4.3071,0.0208,-0.0599,-0.0293,18.26
306644800242700,112573,-0.5539,-9.0401,4.3119,0.0195,-0.0611,-0.0305,18.28
306644811451500,112584,-0.5611,-9.0377,4.3167,0.0208,-0.0611,-0.0305,18.28
306644822661300,112595,-0.5503,-9.0449,4.3131,0.0195,-0.0599,-0.0305,18.25
306644834166300,112607,-0.5551,-9.0509,4.3143,0.0195,-0.0599,-0.0293,18.25
306644845288100,112618,-0.5587,-9.0461,4.3095,0.0195,-0.0599,-0.0305,18.27
306644856330900,112629,-0.5539,-9.0389,4.3143,0.0208,-0.0599,-0.0305,18.26
306644867400200,112641,-0.5575,-9.0509,4.3143,0.0208,-0.0599,-0.0293,18.26
306644879172100,112652,-0.5575,-9.0377,4.3167,0.0208,-0.0599,-0.0305,18.27
306644890368000,112663,-0.5503,-9.0449,4.3238,0.0208,-0.0611,-0.0305,18.27
306644901479900,112674,-0.5575,-9.0413,4.3214,0.0208,-0.0599,-0.0305,18.23
306644912601200,112686,-0.5492,-9.0365,4.3131,0.0208,-0.0599,-0.0293,18.23
306644924240400,112697,-0.5587,-9.0377,4.3178,0.0220,-0.0611,-0.0305,18.23
306644935268300,112708,-0.5623,-9.0437,4.3298,0.0195,-0.0599,-0.0305,18.26
306644946536500,112719,-0.5623,-9.0473,4.3071,0.0195,-0.0599,-0.0293,18.26
306644958106900,112731,-0.5635,-9.0544,4.3083,0.0195,-0.0611,-0.0293,18.27
306644969349700,112742,-0.5599,-9.0389,4.3071,0.0195,-0.0611,-0.0293,18.27
306644980365700,112753,-0.5599,-9.0437,4.3023,0.0195,-0.0611,-0.0305,18.29
306644991461800,112764,-0.5623,-9.0520,4.3178,0.0208,-0.0611,-0.0305,18.29
306645003148000,112776,-0.5563,-9.0377,4.3286,0.0208,-0.0611,-0.0305,18.28
306645014264700,112787,-0.5408,-9.0413,4.3322,0.0208,-0.0599,-0.0293,18.28
306645025394900,112798,-0.5300,-9.0245,4.3466,0.0195,-0.0599,-0.0305,18.30
306645036579400,112809,-0.5348,-9.0305,4.3286,0.0195,-0.0586,-0.0305,18.26
306645048268600,112821,-0.5288,-9.0449,4.3143,0.0195,-0.0599,-0.0305,18.26
306645059161700,112832,-0.5288,-9.0473,4.2915,0.0195,-0.0599,-0.0293,18.31
306645070375300,112843,-0.5372,-9.0568,4.2903,0.0208,-0.0611,-0.0305,18.31
306645081618900,112855,-0.5563,-9.0497,4.2772,0.0208,-0.0611,-0.0293,18.29
306645093150600,112866,-0.5587,-9.0580,4.2820,0.0195,-0.0611,-0.0305,18.29
306645104372200,112877,-0.5659,-9.0329,4.3167,0.0195,-0.0611,-0.0305,18.24
306645115497600,112888,-0.5719,-9.0401,4.3250,0.0195,-0.0611,-0.0305,18.24
306645126585800,112900,-0.5575,-9.0353,4.3238,0.0195,-0.0599,-0.0293,18.24
306645138398600,112911,-0.5252,-9.0257,4.3178,0.0195,-0.0611,-0.0293,18.26
306645149323300,112922,-0.5396,-9.0939,4.2724,0.0195,-0.0599,-0.0269,18.26
306645160470200,112933,-0.5515,-9.0090,4.2843,0.0195,-0.0611,-0.0281,18.26
306645172132000,112945,-0.5838,-9.0628,4.3358,0.0208,-0.0623,-0.0305,18.26
306645183284300,112956,-0.5850,-9.0413,4.3454,0.0208,-0.0611,-0.0293,18.27
306645194352900,112967,-0.5695,-9.0520,4.3346,0.0208,-0.0599,-0.0305,18.27
306645205547300,112978,-0.5539,-9.0293,4.3190,0.0195,-0.0599,-0.0293,18.29
306645217178100,112990,-0.5432,-9.0341,4.3023,0.0208,-0.0599,-0.0293,18.26
306645228285300,113001,-0.5444,-9.0449,4.3107,0.0195,-0.0599,-0.0293,18.26
306645239475700,113012,-0.5539,-9.0221,4.2975,0.0208,-0.0599,-0.0305,18.23
306645250803100,113024,-0.5659,-9.0461,4.3047,0.0208,-0.0611,-0.0305,18.23
306645262175200,113035,-0.5671,-9.0520,4.3131,0.0208,-0.0599,-0.0305,18.26
306645273353200,113046,-0.5527,-9.0353,4.3430,0.0208,-0.0611,-0.0305,18.26
306645284414900,113057,-0.5252,-9.0473,4.2987,0.0171,-0.0733,-0.0232,18.27
306645295575600,113069,-0.5228,-9.0449,4.3119,0.0220,-0.0611,-0.0305,18.25
306645307230500,113080,-0.5480,-9.0473,4.3250,0.0208,-0.0611,-0.0305,18.25
306645318370100,113091,-0.5671,-9.0389,4.3167,0.0208,-0.0611,-0.0293,18.28
306645329443300,113102,-0.5767,-9.0257,4.3095,0.0208,-0.0611,-0.0305,18.28
306645340565600,113114,-0.5850,-9.0353,4.3047,0.0208,-0.0599,-0.0318,18.23
306645352205700,113125,-0.5886,-9.0353,4.3190,0.0208,-0.0599,-0.0305,18.23
306645363399300,113136,-0.5922,-9.0461,4.3059,0.0208,-0.0611,-0.0293,18.27
306645374427700,113147,-0.5515,-9.0532,4.3071,0.0208,-0.0599,-0.0305,18.25
306645385514100,113159,-0.5408,-9.0389,4.3202,0.0208,-0.0599,-0.0305,18.25
306645397256100,113170,-0.5192,-9.0449,4.3190,0.0208,-0.0611,-0.0305,18.28
306645408504800,113181,-0.5168,-9.0401,4.3035,0.0208,-0.0599,-0.0305,18.28
306645419529500,113192,-0.5312,-9.0497,4.3107,0.0208,-0.0599,-0.0293,18.26
306645430768300,113204,-0.5456,-9.0497,4.3035,0.0195,-0.0611,-0.0293,18.26
306645442289400,113215,-0.5575,-9.0509,4.2879,0.0208,-0.0611,-0.0305,18.28
306645453311000,113226,-0.5755,-9.0425,4.3095,0.0208,-0.0599,-0.0305,18.28
306645464382200,113238,-0.5743,-9.0449,4.3298,0.0208,-0.0599,-0.0293,18.29
306645475810500,113249,-0.5671,-9.0281,4.3226,0.0195,-0.0599,-0.0305,18.24
306645487359800,113260,-0.5492,-9.0401,4.3226,0.0208,-0.0599,-0.0305,18.24
306645498495100,113271,-0.5360,-9.0413,4.3167,0.0195,-0.0611,-0.0305,18.23
306645509659600,113283,-0.5288,-9.0437,4.3059,0.0208,-0.0611,-0.0305,18.23
306645521162000,113294,-0.5360,-9.0509,4.2999,0.0208,-0.0611,-0.0305,18.23
306645532317700,113305,-0.5276,-9.0485,4.3047,0.0208,-0.0611,-0.0305,18.23
306645543173600,113316,-0.5503,-9.0485,4.3167,0.0208,-0.0611,-0.0305,18.26
306645554569000,113328,-0.5743,-9.0437,4.3083,0.0208,-0.0599,-0.0305,18.27
306645566078700,113339,-0.5707,-9.0425,4.3190,0.0208,-0.0611,-0.0293,18.27
306645577294800,113350,-0.5635,-9.0473,4.3143,0.0208,-0.0599,-0.0305,18.26
306645588260800,113361,-0.5503,-9.0485,4.3059,0.0208,-0.0599,-0.0293,18.26
306645599672100,113373,-0.5432,-9.0544,4.3059,0.0195,-0.0611,-0.0305,18.27
306645611181200,113384,-0.5384,-9.0413,4.2987,0.0208,-0.0611,-0.0305,18.27
306645622283100,113395,-0.5396,-9.0365,4.3047,0.0208,-0.0599,-0.0305,18.26
306645633469500,113406,-0.5515,-9.0413,4.3119,0.0208,-0.0599,-0.0305,18.26
306645644507700,113418,-0.5587,-9.0365,4.3143,0.0195,-0.0611,-0.0305,18.26
306645656137500,113429,-0.5659,-9.0413,4.3119,0.0208,-0.0611,-0.0305,18.25
306645667356800,113440,-0.5635,-9.0497,4.3143,0.0208,-0.0599,-0.0305,18.25
306645678634300,113452,-0.5456,-9.0281,4.3047,0.0208,-0.0599,-0.0318,18.25
306645689637000,113463,-0.5420,-9.0413,4.2999,0.0208,-0.0611,-0.0305,18.25
306645701252600,113474,-0.5480,-9.0485,4.3071,0.0208,-0.0599,-0.0293,18.30
306645712370700,113485,-0.5432,-9.0401,4.3083,0.0208,-0.0599,-0.0305,18.30
306645723512700,113497,-0.5551,-9.0377,4.3107,0.0208,-0.0599,-0.0305,18.24
306645734779000,113508,-0.5611,-9.0377,4.3202,0.0195,-0.0599,-0.0305,18.27
306645746303100,113519,-0.5515,-9.0329,4.3178,0.0208,-0.0611,-0.0305,18.27
306645757571800,113530,-0.5456,-9.0353,4.3155,0.0208,-0.0611,-0.0293,18.28
306645768301300,113542,-0.5408,-9.0485,4.3143,0.0208,-0.0599,-0.0305,18.28
306645779772600,113553,-0.5408,-9.0437,4.3155,0.0208,-0.0611,-0.0305,18.26
306645791310300,113564,-0.5396,-9.0473,4.3131,0.0208,-0.0599,-0.0293,18.26
306645802421000,113575,-0.5563,-9.0485,4.3167,0.0195,-0.0599,-0.0305,18.26
306645813462400,113587,-0.5587,-9.0365,4.3190,0.0208,-0.0599,-0.0293,18.26
306645825114700,113598,-0.5563,-9.0341,4.3155,0.0195,-0.0611,-0.0305,18.26
306645836273400,113609,-0.5515,-9.0425,4.3167,0.0208,-0.0611,-0.0305,18.30
306645847378800,113620,-0.5468,-9.0413,4.3095,0.0208,-0.0599,-0.0293,18.30
306645858253600,113632,-0.5503,-9.0425,4.3119,0.0195,-0.0599,-0.0305,18.29
306645870160900,113643,-0.5432,-9.0437,4.3107,0.0208,-0.0599,-0.0305,18.29
306645881208700,113654,-0.5527,-9.0377,4.3190,0.0208,-0.0611,-0.0293,18.27
306645892195500,113666,-0.5527,-9.0401,4.3190,0.0208,-0.0611,-0.0305,18.27
306645903470800,113677,-0.5611,-9.0401,4.3143,0.0208,-0.0599,-0.0293,18.23
306645915159100,113688,-0.5563,-9.0473,4.3155,0.0208,-0.0611,-0.0305,18.24
306645926279900,113699,-0.5527,-9.0365,4.3107,0.0208,-0.0599,-0.0305,18.24
306645937266600,113711,-0.5503,-9.0520,4.3095,0.0208,-0.0611,-0.0305,18.30
306645948479800,113722,-0.5444,-9.0377,4.3071,0.0195,-0.0599,-0.0305,18.30
306645960288600,113733,-0.5468,-9.0520,4.3190,0.0195,-0.0599,-0.0305,18.26
306645971156800,113744,-0.5515,-9.0485,4.3083,0.0208,-0.0611,-0.0305,18.26
306645982340200,113756,-0.5480,-9.0544,4.3071,0.0208,-0.0611,-0.0305,18.26
306645993539900,113767,-0.5623,-9.0365,4.3083,0.0208,-0.0611,-0.0293,18.26
306646005168300,113778,-0.5635,-9.0401,4.3095,0.0208,-0.0611,-0.0293,18.26
306646016358500,113789,-0.5599,-9.0532,4.3155,0.0208,-0.0611,-0.0305,18.26
306646027424800,113801,-0.5611,-9.0401,4.3083,0.0195,-0.0599,-0.0305,18.26
306646038528100,113812,-0.5587,-9.0449,4.3190,0.0208,-0.0611,-0.0305,18.29
306646050137200,113823,-0.5575,-9.0413,4.3095,0.0195,-0.0599,-0.0305,18.29
306646061464100,113835,-0.5456,-9.0461,4.3107,0.0208,-0.0599,-0.0305,18.28
306646072666200,113846,-0.5456,-9.0401,4.3143,0.0195,-0.0599,-0.0305,18.28
306646084185100,113857,-0.5515,-9.0437,4.3083,0.0208,-0.0599,-0.0305,18.30
306646095084400,113868,-0.5575,-9.0413,4.3071,0.0195,-0.0599,-0.0293,18.27
306646106273900,113880,-0.5539,-9.0437,4.3214,0.0208,-0.0599,-0.0305,18.27
306646117505200,113891,-0.5683,-9.0233,4.3047,0.0208,-0.0599,-0.0305,18.29
306646129073800,113902,-0.5575,-9.0413,4.3214,0.0208,-0.0611,-0.0305,18.29
306646139946600,113913,-0.5707,-9.0353,4.3047,0.0195,-0.0599,-0.0305,18.27
306646151016800,113925,-0.5539,-9.0485,4.3071,0.0208,-0.0599,-0.0305,18.27
306646162188300,113936,-0.5503,-9.0341,4.3047,0.0208,-0.0599,-0.0293,18.26
306646173926800,113947,-0.5492,-9.0425,4.3167,0.0208,-0.0599,-0.0293,18.28
306646185108900,113958,-0.5527,-9.0461,4.3107,0.0208,-0.0599,-0.0293,18.28
306646196030000,113970,-0.5731,-9.0389,4.3083,0.0208,-0.0599,-0.0305,18.29
306646207104700,113981,-0.5635,-9.0461,4.3095,0.0195,-0.0599,-0.0305,18.29
306646219010600,113992,-0.5623,-9.0497,4.3035,0.0208,-0.0611,-0.0318,18.29
306646230000500,114003,-0.5551,-9.0449,4.3107,0.0208,-0.0611,-0.0318,18.29
306646240945900,114015,-0.5515,-9.0365,4.3107,0.0208,-0.0611,-0.0293,18.25
306646252849900,114026,-0.5468,-9.0365,4.3202,0.0208,-0.0599,-0.0305,18.25
306646264025600,114037,-0.5396,-9.0437,4.3095,0.0208,-0.0599,-0.0293,18.25
306646275050300,114049,-0.5515,-9.0365,4.3190,0.0208,-0.0599,-0.0305,18.28
306646285999100,114060,-0.5599,-9.0568,4.3226,0.0208,-0.0599,-0.0305,18.28
306646297971500,114071,-0.5587,-9.0197,4.2963,0.0195,-0.0599,-0.0305,18.23
306646308991200,114082,-0.5503,-9.0592,4.3286,0.0208,-0.0599,-0.0305,18.23
306646320034700,114094,-0.5683,-9.0197,4.2951,0.0208,-0.0599,-0.0305,18.27
306646331046300,114105,-0.5480,-9.0640,4.3143,0.0208,-0.0599,-0.0305,18.27
306646342864800,114116,-0.5456,-9.0449,4.3059,0.0208,-0.0599,-0.0305,18.28
306646354007500,114127,-0.5587,-9.0449,4.3107,0.0208,-0.0599,-0.0305,18.21
306646364908500,114139,-0.5456,-9.0329,4.3095,0.0208,-0.0599,-0.0305,18.21
306646376034600,114150,-0.5456,-9.0461,4.3310,0.0208,-0.0611,-0.0305,18.30
306646387871600,114161,-0.5539,-9.0281,4.3250,0.0208,-0.0611,-0.0293,18.30
306646398907500,114172,-0.5420,-9.0377,4.3119,0.0195,-0.0599,-0.0305,18.28
306646409879300,114184,-0.5503,-9.0365,4.3023,0.0208,-0.0599,-0.0318,18.28
306646420903100,114195,-0.5420,-9.0485,4.2963,0.0208,-0.0611,-0.0318,18.29
306646432849200,114206,-0.5635,-9.0401,4.3059,0.0208,-0.0599,-0.0305,18.29
306646444082400,114217,-0.5695,-9.0461,4.3071,0.0195,-0.0599,-0.0293,18.26
306646455140200,114229,-0.5647,-9.0449,4.3119,0.0208,-0.0599,-0.0293,18.28
306646466199800,114240,-0.5635,-9.0377,4.3107,0.0208,-0.0599,-0.0305,18.28
306646478044700,114251,-0.5444,-9.0449,4.3107,0.0208,-0.0599,-0.0305,18.27
306646489203100,114263,-0.5432,-9.0425,4.3119,0.0208,-0.0599,-0.0305,18.27
306646500275200,114274,-0.5420,-9.0461,4.3035,0.0208,-0.0599,-0.0305,18.27
306646512064900,114285,-0.5432,-9.0377,4.3155,0.0208,-0.0611,-0.0293,18.27
306646523016000,114296,-0.5503,-9.0425,4.3155,0.0208,-0.0599,-0.0293,18.28
306646534124300,114308,-0.5611,-9.0425,4.3214,0.0208,-0.0611,-0.0293,18.27
306646545181400,114319,-0.5599,-9.0413,4.3131,0.0208,-0.0599,-0.0305,18.27
306646557082400,114330,-0.5635,-9.0449,4.3107,0.0208,-0.0599,-0.0293,18.25
306646568090500,114341,-0.5551,-9.0497,4.3083,0.0208,-0.0599,-0.0293,18.25
306646579162500,114353,-0.5456,-9.0437,4.3143,0.0208,-0.0599,-0.0293,18.25
306646590160600,114364,-0.5372,-9.0509,4.3119,0.0208,-0.0599,-0.0293,18.25
306646602001800,114375,-0.5492,-9.0437,4.3023,0.0208,-0.0599,-0.0305,18.23
306646613101100,114386,-0.5515,-9.0389,4.3202,0.0208,-0.0611,-0.0318,18.23
306646624151500,114398,-0.5444,-9.0437,4.3107,0.0195,-0.0599,-0.0305,18.26
306646635227400,114409,-0.5587,-9.0485,4.3238,0.0195,-0.0611,-0.0305,18.23
306646647157200,114420,-0.5599,-9.0461,4.3143,0.0195,-0.0599,-0.0318,18.23
306646658232000,114432,-0.5539,-9.0365,4.3143,0.0208,-0.0599,-0.0305,18.29
306646669144000,114443,-0.5575,-9.0425,4.3071,0.0195,-0.0599,-0.0305,18.29
306646680979100,114454,-0.5468,-9.0401,4.3059,0.0195,-0.0599,-0.0305,18.25
306646692057500,114465,-0.5492,-9.0437,4.3107,0.0195,-0.0599,-0.0293,18.25
306646703208400,114477,-0.5492,-9.0413,4.3143,0.0208,-0.0599,-0.0305,18.27
306646714150600,114488,-0.5468,-9.0413,4.3119,0.0208,-0.0599,-0.0305,18.23
306646726062300,114499,-0.5420,-9.0425,4.3095,0.0208,-0.0599,-0.0305,18.23
306646737132200,114510,-0.5527,-9.0377,4.3119,0.0208,-0.0599,-0.0305,18.24
306646748069100,114522,-0.5492,-9.0389,4.3071,0.0208,-0.0611,-0.0305,18.24
306646758898200,114533,-0.5551,-9.0556,4.3131,0.0208,-0.0611,-0.0305,18.25
306646770875000,114544,-0.5468,-9.0509,4.3023,0.0195,-0.0599,-0.0293,18.25
306646781995800,114555,-0.5539,-9.0389,4.3143,0.0208,-0.0599,-0.0293,18.21
306646793049400,114567,-0.5611,-9.0437,4.3107,0.0208,-0.0611,-0.0318,18.29
306646804188500,114578,-0.5551,-9.0413,4.3083,0.0195,-0.0599,-0.0305,18.29
306646816060600,114589,-0.5551,-9.0461,4.3035,0.0195,-0.0611,-0.0305,18.25
306646827100500,114600,-0.5492,-9.0485,4.3131,0.0208,-0.0611,-0.0305,18.25
306646838136300,114612,-0.5432,-9.0353,4.3047,0.0195,-0.0599,-0.0305,18.23
306646849987200,114623,-0.5384,-9.0353,4.3107,0.0195,-0.0599,-0.0305,18.23
306646861158900,114634,-0.5456,-9.0413,4.3035,0.0208,-0.0611,-0.0305,18.29
306646872115000,114646,-0.5456,-9.0497,4.3071,0.0208,-0.0611,-0.0305,18.29
306646883172500,114657,-0.5623,-9.0473,4.3035,0.0195,-0.0611,-0.0305,18.23
306646894998800,114668,-0.5659,-9.0353,4.3059,0.0208,-0.0611,-0.0293,18.27
306646906106700,114679,-0.5587,-9.0389,4.3059,0.0208,-0.0611,-0.0305,18.27
306646917123700,114691,-0.5575,-9.0413,4.3119,0.0208,-0.0611,-0.0305,18.29
306646928236500,114702,-0.5551,-9.0449,4.3250,0.0208,-0.0611,-0.0293,18.29
306646940022700,114713,-0.5420,-9.0401,4.3178,0.0195,-0.0611,-0.0305,18.30
306646951161100,114724,-0.5468,-9.0401,4.3274,0.0195,-0.0611,-0.0305,18.30
306646962174100,114736,-0.5492,-9.0257,4.3322,0.0208,-0.0611,-0.0305,18.27
306646973198600,114747,-0.5408,-9.0975,4.3226,0.0195,-0.0611,-0.0305,18.22
306646985079900,114758,-0.5192,-9.0066,4.2413,0.0195,-0.0599,-0.0293,18.22
306646996156000,114769,-0.5611,-9.0532,4.3107,0.0208,-0.0623,-0.0293,18.32
306647007148300,114781,-0.5791,-9.0580,4.3430,0.0195,-0.0611,-0.0305,18.32
306647018209500,114792,-0.5707,-9.0185,4.3083,0.0195,-0.0599,-0.0293,18.28
306647030115300,114803,-0.5671,-9.0281,4.3143,0.0195,-0.0599,-0.0293,18.28
306647041023400,114814,-0.5659,-9.0341,4.3334,0.0208,-0.0599,-0.0305,18.26
306647052048200,114826,-0.5659,-9.0389,4.3250,0.0208,-0.0599,-0.0305,18.26
306647063975000,114837,-0.5587,-9.0449,4.3119,0.0195,-0.0599,-0.0293,18.28
306647074997700,114848,-0.5515,-9.0401,4.2987,0.0208,-0.0599,-0.0293,18.28
306647085998000,114860,-0.5444,-9.0461,4.2927,0.0208,-0.0599,-0.0293,18.28
306647097051100,114871,-0.5408,-9.0497,4.2975,0.0208,-0.0599,-0.0305,18.28
306647108959500,114882,-0.5480,-9.0437,4.2999,0.0208,-0.0599,-0.0305,18.28
306647120112200,114893,-0.5527,-9.0437,4.3023,0.0208,-0.0599,-0.0305,18.27
306647131107700,114905,-0.5539,-9.0437,4.3178,0.0208,-0.0599,-0.0305,18.27
306647142035800,114916,-0.5635,-9.0461,4.3226,0.0208,-0.0599,-0.0305,18.28
306647153954100,114927,-0.5599,-9.0413,4.3238,0.0195,-0.0599,-0.0305,18.30
306647165028000,114938,-0.5456,-9.0389,4.3059,0.0208,-0.0599,-0.0293,18.30
306647176109900,114950,-0.5408,-9.0485,4.3107,0.0208,-0.0599,-0.0305,18.30
306647187165800,114961,-0.5468,-9.0437,4.3119,0.0195,-0.0599,-0.0305,18.30
306647199032600,114972,-0.5551,-9.0461,4.3035,0.0195,-0.0611,-0.0305,18.27
306647210106900,114983,-0.5551,-9.0413,4.3059,0.0208,-0.0611,-0.0305,18.27
306647221158900,114995,-0.5587,-9.0485,4.3047,0.0208,-0.0611,-0.0305,18.27
306647232231400,115006,-0.5623,-9.0485,4.3178,0.0195,-0.0611,-0.0293,18.27
306647243968800,115017,-0.5539,-9.0413,4.3059,0.0208,-0.0599,-0.0293,18.26
306647254924800,115028,-0.5551,-9.0425,4.3035,0.0208,-0.0599,-0.0305,18.32
306647266112700,115040,-0.5492,-9.0425,4.3083,0.0208,-0.0599,-0.0305,18.32
306647278033000,115051,-0.5527,-9.0437,4.3167,0.0195,-0.0599,-0.0305,18.28
306647289133800,115062,-0.5456,-9.0365,4.3214,0.0208,-0.0599,-0.0305,18.28
306647300048800,115074,-0.5527,-9.0425,4.3226,0.0208,-0.0599,-0.0305,18.31
306647311106000,115085,-0.5456,-9.0425,4.3250,0.0208,-0.0599,-0.0305,18.31
306647322984400,115096,-0.5444,-9.0377,4.3035,0.0208,-0.0599,-0.0305,18.26
306647333976700,115107,-0.5575,-9.0485,4.3071,0.0208,-0.0599,-0.0305,18.30
306647345113400,115119,-0.5515,-9.0449,4.2999,0.0208,-0.0599,-0.0305,18.30
306647356230600,115130,-0.5587,-9.0425,4.3035,0.0208,-0.0599,-0.0305,18.28
306647368056700,115141,-0.5659,-9.0377,4.3143,0.0195,-0.0599,-0.0305,18.28
306647379118000,115152,-0.5551,-9.0461,4.3143,0.0208,-0.0599,-0.0305,18.30
306647390192800,115164,-0.5432,-9.0425,4.3167,0.0208,-0.0599,-0.0305,18.30
306647401178500,115175,-0.5456,-9.0437,4.3059,0.0208,-0.0611,-0.0305,18.25
306647413106000,115186,-0.5420,-9.0377,4.3155,0.0208,-0.0599,-0.0293,18.25
306647424166500,115197,-0.5515,-9.0485,4.3131,0.0195,-0.0599,-0.0293,18.27
306647435146500,115209,-0.5635,-9.0413,4.3107,0.0208,-0.0599,-0.0293,18.30
306647446240500,115220,-0.5539,-9.0497,4.3071,0.0208,-0.0599,-0.0305,18.30
306647458046000,115231,-0.5396,-9.0209,4.2963,0.0220,-0.0586,-0.0244,18.26
306647469109200,115243,-0.5755,-9.0844,4.3466,0.0232,-0.0574,-0.0195,18.26
306647480085400,115254,-0.5432,-9.0126,4.3023,0.0183,-0.0635,-0.0379,18.29
306647491950200,115265,-0.5396,-9.0066,4.2951,0.0195,-0.0611,-0.0354,18.29
306647503100900,115276,-0.5659,-9.0401,4.3107,0.0183,-0.0611,-0.0342,18.26
306647514123400,115288,-0.5456,-9.0353,4.3047,0.0183,-0.0623,-0.0318,18.25
306647525203000,115299,-0.5563,-9.0485,4.3155,0.0183,-0.0599,-0.0305,18.25
306647537047400,115310,-0.5527,-9.0365,4.2975,0.0183,-0.0611,-0.0293,18.30
306647547924100,115321,-0.5707,-9.0437,4.3083,0.0195,-0.0586,-0.0293,18.30
306647559048400,115333,-0.5515,-9.0437,4.3131,0.0195,-0.0599,-0.0305,18.26
306647569994000,115344,-0.5492,-9.0556,4.3083,0.0195,-0.0599,-0.0293,18.26
306647581846600,115355,-0.5492,-9.0389,4.2999,0.0208,-0.0611,-0.0293,18.28
306647592920300,115366,-0.5444,-9.0257,4.3226,0.0183,-0.0599,-0.0305,18.27
306647603925700,115378,-0.5348,-9.0341,4.3597,0.0134,-0.0550,-0.0318,18.27
306647614970800,115389,-0.5659,-9.0604,4.2712,0.0159,-0.0525,-0.0354,18.26
306647626851500,115400,-0.5587,-9.0329,4.3561,0.0159,-0.0562,-0.0318,18.26
306647637934900,115411,-0.5456,-9.0520,4.2508,0.0171,-0.0525,-0.0330,18.26
306647649031800,115423,-0.5252,-9.0341,4.3083,0.0195,-0.0562,-0.0318,18.26
306647661037000,115434,-0.4642,-8.9934,4.4686,0.0257,-0.0513,-0.0342,18.24
306647672004300,115445,-0.0981,-8.9420,4.5428,0.0122,-0.0318,-0.0415,18.24
306647682877100,115457,-0.5659,-8.9922,4.4518,0.0391,0.0342,-0.0733,18.31
306647694001000,115468,-0.2381,-8.9145,4.5787,0.0330,0.0623,-0.0843,18.24
306647706037600,115479,-0.2620,-8.9276,4.5823,0.0269,0.0953,-0.1002,18.24
306647717317500,115490,-0.5157,-9.0281,4.4267,-0.0122,0.1552,-0.1210,18.27
306647728088600,115502,-0.4499,-8.8654,4.6648,-0.1210,0.2016,-0.1356,18.27
306647739181500,115513,-0.3182,-8.9647,4.5691,-0.0660,0.2566,-0.1637,18.29
306647751187500,115524,-0.3482,-8.9504,4.4949,-0.0318,0.3299,-0.2004,18.29
306647762140200,115535,-0.4463,-8.9779,4.2760,0.0635,0.3922,-0.2346,18.28
306647773139700,115547,-0.4379,-8.9958,4.5069,0.2847,0.4594,-0.2810,18.30
306647784994500,115558,-0.4032,-8.9133,4.3657,0.0867,0.4300,-0.2480,18.30
306647796041200,115569,-0.6640,-9.2447,4.2341,0.0623,0.4032,-0.2346,18.26
306647807187100,115580,-0.6066,-9.0150,4.3609,0.0550,0.3995,-0.2321,18.26
306647818292000,115592,-0.9655,-8.9683,4.2054,0.0525,0.3995,-0.2334,18.27
306647830113400,115603,-0.6197,-9.0365,4.0953,0.0501,0.3873,-0.2297,18.27
306647841107600,115614,-0.7645,-9.1310,4.0319,0.0538,0.3690,-0.2211,18.26
306647852185000,115625,-0.9476,-9.3212,3.5844,0.0415,0.3128,-0.1600,18.26
306647863237600,115637,-0.8638,-9.2076,3.7484,0.0330,0.0977,-0.1002,18.28
306647875022100,115648,-0.7071,-9.1514,4.0929,0.0257,-0.0122,-0.0513,18.28
306647886099500,115659,-0.5803,-9.0509,4.2951,0.0220,-0.0538,-0.0330,18.28
306647897230700,115671,-0.5671,-9.0341,4.3190,0.0208,-0.0599,-0.0293,18.25
306647908387700,115682,-0.5575,-9.0353,4.3071,0.0220,-0.0611,-0.0305,18.25
306647920204200,115693,-0.5575,-9.0329,4.3167,0.0208,-0.0611,-0.0305,18.29
306647931309200,115704,-0.5623,-9.0413,4.3202,0.0195,-0.0611,-0.0293,18.29
306647942155600,115716,-0.5539,-9.0377,4.3262,0.0208,-0.0611,-0.0305,18.26
306647953290000,115727,-0.5551,-9.0413,4.3131,0.0208,-0.0611,-0.0305,18.22
306647965674000,115738,-0.5587,-9.0389,4.3250,0.0208,-0.0611,-0.0305,18.22
306647976144900,115749,-0.5611,-9.0485,4.3202,0.0208,-0.0611,-0.0305,18.26
306647987399900,115761,-0.5635,-9.0317,4.3202,0.0208,-0.0611,-0.0305,18.26
306647999164100,115772,-0.5659,-9.0473,4.3190,0.0208,-0.0611,-0.0305,18.30
306648010188300,115783,-0.5360,-8.9683,4.3490,0.0208,-0.0611,-0.0305,18.30
306648021087500,115794,-0.3805,-8.8271,4.8431,0.0159,-0.0880,-0.0110,18.30
306648032342500,115806,-0.5480,-9.0736,4.2987,0.0098,-0.1991,0.0428,18.30
306648044075300,115817,-0.6915,-9.1681,4.0175,0.0183,-0.1784,0.0330,18.27
306648055180100,115828,-0.7884,-9.1478,3.9817,0.0195,-0.1258,0.0061,18.29
306648066329700,115840,-0.5791,-9.0389,4.3454,0.0208,-0.0709,-0.0220,18.29
306648077351800,115851,-0.4786,-8.9360,4.5631,0.0183,-0.0819,-0.0183,18.27
306648089018200,115862,-0.4020,-8.8905,4.6397,0.0159,-0.1600,0.0232,18.27
306648100231000,115873,-0.4714,-8.9970,4.3992,0.0110,-0.2321,0.0623,18.28
306648111230500,115885,-0.5168,-9.0102,4.2987,0.0110,-0.2590,0.0819,18.28
306648122195600,115896,-0.2991,-8.9432,4.6780,0.0061,-0.3164,0.0806,18.30
306648134296100,115907,-0.4355,-9.0293,4.0355,-0.0122,-0.3433,0.0709,18.28
306648145256200,115918,-0.7011,-9.1525,4.2748,0.0037,-0.3213,0.0696,18.28
306648156219700,115930,-0.7286,-9.2064,4.1504,0.0037,-0.2639,0.0000,18.29
306648167369400,115941,-0.8375,-9.0879,3.9948,0.0037,-0.1747,-0.0208,18.29
306648179175600,115952,-0.8806,-9.1968,3.7555,0.0183,-0.1002,-0.0257,18.25
306648190152100,115963,-0.5480,-9.0413,4.3143,0.0257,-0.0562,-0.0330,18.25
306648201443500,115975,-0.5611,-9.0509,4.0128,0.0220,-0.0586,-0.0305,18.24
306648212280600,115986,-0.5527,-9.0090,4.3741,0.0244,-0.0428,-0.0318,18.27
306648224312600,115997,-0.5456,-8.9468,4.4590,0.0244,-0.0244,-0.0403,18.27
306648235341000,116008,-0.5372,-8.8726,4.5176,0.0305,0.0770,-0.0745,18.28
306648246469500,116020,-0.5827,-8.9850,4.4901,0.0452,0.2101,-0.1100,18.28
306648257278800,116031,-0.5611,-9.2291,4.2520,0.0428,0.2749,-0.1368,18.29
306648269248600,116042,-0.6162,-9.0126,4.3813,0.0501,0.2737,-0.1723,18.29
306648280364300,116054,-0.5145,-9.0150,4.0403,0.0379,0.2443,-0.1845,18.26
306648291356200,116065,-0.6126,-8.8989,4.1707,0.0550,0.1552,-0.0965,18.26
306648303051100,116076,-0.5515,-9.0197,4.3083,0.0147,-0.0489,-0.0489,18.28
306648314105100,116087,-0.5611,-9.0185,4.3490,0.0195,-0.0635,-0.0208,18.26
306648325184600,116099,-0.7346,-8.9480,4.5500,0.0171,-0.0782,-0.0159,18.26
306648336442700,116110,-0.8183,-8.9037,4.7856,0.0159,-0.1625,0.0049,18.24
306648348091400,116121,-0.7884,-8.9276,4.4913,0.0024,-0.2505,0.0110,18.24
306648359117100,116132,-0.3254,-8.8869,4.3837,0.0061,-0.2492,0.0269,18.27
306648370285300,116144,-0.4379,-9.0556,4.4901,0.0159,-0.0929,-0.0098,18.27
306648381426300,116155,-0.6772,-8.6895,4.7270,0.0257,0.0354,-0.0929,18.29
306648393160300,116166,-0.7370,-9.0377,4.6971,0.0379,0.2786,-0.1930,18.27
306648404230600,116177,-0.4439,-8.7565,5.0752,0.0440,0.4239,-0.2566,18.27
306648415406100,116189,0.0419,-8.4371,5.2283,0.0476,0.5315,-0.3567,18.29
306648427139400,116200,0.3781,-9.0221,5.1781,0.0586,0.6683,-0.4667,18.29
306648438101700,116211,0.0718,-9.2554,5.0847,0.0672,0.8002,-0.5986,18.25
306648449310800,116222,-0.6855,-8.9360,4.5141,0.0538,0.8748,-0.6988,18.25
306648460360700,116234,-0.8291,-9.4038,4.1946,0.0367,0.9016,-0.7587,18.27
306648472143900,116245,-0.9559,-8.9803,3.9218,0.0232,0.8943,-0.8137,18.27
306648483274200,116256,-0.5719,-9.6742,3.9254,0.0024,0.8687,-0.8552,18.28
306648494352000,116268,0.0084,-9.3535,4.3059,-0.0183,0.8051,-0.9041,18.27
306648505339200,116279,0.6724,-9.1430,4.0666,-0.0379,0.7465,-0.9749,18.27
306648517228300,116290,0.0526,-9.0975,3.8106,-0.0550,0.7428,-0.9774,18.27
306648528285100,116301,0.4080,-9.3571,4.1252,-0.0538,0.7611,-0.9175,18.27
306648539315200,116313,0.2824,-9.3440,4.4853,-0.0709,0.7159,-0.9358,18.25
306648550418800,116324,0.2118,-8.9456,4.7617,-0.1112,0.6243,-1.0580,18.25
306648562319700,116335,0.0658,-9.0293,5.4174,-0.1564,0.6585,-1.4881,18.28
306648573360300,116346,0.7549,-9.2997,5.5214,-0.3128,1.0959,-1.7752,18.29
306648584435300,116358,0.8219,-10.4746,5.3073,-0.2627,1.4502,-2.0061,18.29
306648596216000,116369,0.6628,-10.4076,5.3707,0.4349,1.9401,-2.1356,18.29
306648607291600,116380,0.9021,-8.6154,5.7488,1.1154,2.3958,-2.2516,18.29
306648618427400,116391,1.0839,-7.4130,5.9222,1.0263,2.6121,-2.5180,18.28
306648630132200,116403,1.7420,-6.7825,5.2271,0.2700,2.6060,-2.8515,18.28
306648641200900,116414,2.4048,-7.7121,4.3717,-0.6524,2.5705,-3.0800,18.27
306648652277600,116425,2.6177,-10.0642,2.5496,-1.1130,2.1881,-2.9566,18.24
306648663377300,116436,2.1595,-8.9097,1.9717,-0.8149,1.9560,-2.6829,18.24
306648675204000,116448,1.2802,-8.9180,2.0435,-1.0519,1.6530,-2.5534,18.30
306648686241000,116459,0.4774,-8.3450,2.1332,-1.6750,1.3671,-2.5620,18.30
306648697153300,116470,-0.5444,-8.4431,2.4766,-3.0189,1.2205,-2.6463,18.25
306648709159900,116482,0.2847,-9.5330,2.7338,-4.9309,1.1900,-2.7758,18.25
306648720031900,116493,2.8738,-13.0229,3.1657,-5.8106,1.3952,-2.6683,18.26
306648731090600,116505,3.5892,-11.7320,0.4570,-5.9034,1.6554,-1.9548,18.26
306648743069400,116516,4.3549,-13.1103,-0.8136,-8.8637,1.7214,-0.4924,18.26
306648754214100,116528,4.4973,-13.6965,-1.5135,-8.5631,1.5162,0.5608,18.25
306648765116100,116539,2.6524,-11.0943,-2.5208,-7.3536,1.0006,1.4160,18.25
306648776924800,116550,1.7001,-10.0307,-1.9250,-6.8698,0.3812,1.7520,18.30
306648788012000,116561,2.0758,-9.9900,-0.6748,-6.2149,-0.0513,1.5259,18.30
306648799280900,116573,1.6798,-10.4554,-0.1005,-4.6841,-0.1319,1.1545,18.28
306648811176400,116584,1.2514,-12.1711,-0.3864,-3.0824,0.0819,0.8992,18.28
306648822154700,116595,0.5204,-15.9757,-0.9296,-1.6054,0.7453,1.6383,18.30
306648833385200,116606,0.9655,-15.6467,-1.0576,-2.4190,1.0311,2.6157,18.23
306648845008000,116618,0.6114,-13.0648,-3.1083,-3.9584,1.4612,3.7642,18.23
306648856105400,116629,1.3065,-12.6951,-5.1517,-6.2614,1.4673,4.7085,18.25
306648867219900,116640,0.6891,-11.8445,-6.8997,-7.7983,1.1484,5.4953,18.25
306648879019000,116652,-0.3745,-9.6706,-8.6919,-8.6804,0.5424,6.0011,18.28
306648890146700,116663,1.3962,-8.9384,-6.6317,-9.9229,-0.2248,6.2992,18.28
306648901143800,116674,2.4335,-7.5637,-4.2473,-10.8294,-0.8809,6.3994,18.24
306648913024300,116686,1.8257,-7.2263,-3.7220,-9.2363,-1.3989,6.4446,18.24
306648924092600,116698,-0.1268,-5.6351,-4.9783,-7.0702,-1.1961,6.4080,18.24
306648935243700,116709,-1.9454,-4.0379,-7.2012,-5.7544,-0.8650,6.4092,18.25
306648947244200,116720,-2.5376,-4.6361,-8.4778,-5.6713,-0.6316,6.4593,18.25
306648958278900,116731,-0.8435,-4.4734,-8.2828,-5.6261,-0.5070,6.7024,18.28
306648969522600,116743,0.6365,-3.6215,-7.8676,-6.0732,-0.5803,7.2351,18.28
306648981120300,116754,0.5025,-3.8524,-7.4046,-6.6010,-0.8430,7.9608,18.31
306648992361600,116765,1.0504,-2.4287,-6.4343,-5.5418,-1.3793,9.3695,18.32
306649003385100,116776,1.7264,-0.5815,-6.4116,-4.8161,-1.5076,9.9461,18.32
306649015251800,116788,2.0782,1.4800,-6.5085,-4.6243,-1.6640,10.4360,18.28
306649026289400,116799,2.5555,3.7161,-6.9607,-5.0299,-1.9878,10.7598,18.28
306649037290400,116810,4.5787,3.6778,-8.1858,-5.9034,-2.5217,10.7476,18.30
306649049604900,116822,5.4592,7.1880,-8.5998,-5.3988,-3.2498,10.1672,18.30
306649060381800,116833,5.9019,10.2700,-4.4602,-4.2565,-3.8741,9.1666,18.25
306649071305400,116844,1.0971,27.3655,-5.3372,-5.0030,-4.2626,6.1587,18.25
306649083209000,116855,1.7659,10.3155,-1.5673,-17.9069,-4.6352,3.2987,18.25
306649094198900,116868,2.2983,7.1880,2.5747,-15.1262,-3.8582,1.7630,18.27
306649105227600,116879,1.2203,9.2459,2.9312,-9.6114,-2.8051,1.0043,18.27
306649117155400,116890,0.3912,9.6646,2.2672,-5.7018,-1.6872,0.3042,18.27
306649128081700,116901,-0.6257,7.8844,0.8387,-2.4068,-0.8027,-0.0599,18.27
306649139017500,116913,-1.2120,7.3472,0.1089,-0.2663,-0.2346,-0.0086,18.25
306649150398400,116924,-1.2598,7.8532,-1.3472,-0.2162,0.0281,0.3922,18.25
306649162262200,116935,-4.2473,9.0461,-0.0467,-3.2168,-0.4362,0.5999,18.29
306649173258000,116946,-4.1839,8.9145,-0.0550,-3.2852,-0.7636,0.4276,18.26
306649184457700,116958,-2.5053,9.1107,0.3159,-2.5583,-1.0715,0.0977,18.26
306649196204100,116969,-0.3996,8.0375,0.9488,-1.9438,-1.3109,-0.2211,18.30
306649207246800,116980,0.2716,8.1667,2.2720,-1.2046,-1.4233,-0.3910,18.30
306649218287500,116992,-1.1677,7.3567,3.0305,-0.6646,-1.4380,-0.4398,18.27
306649230160400,117003,-2.4191,8.7206,3.0197,-0.0122,-1.3842,-0.2566,18.27
306649241646700,117014,-3.1896,8.9360,-0.1902,0.1442,-1.3024,0.0476,18.30
306649252247800,117025,-3.0437,9.1047,-1.1174,0.4215,-1.4270,0.5217,18.28
306649263456000,117037,-2.3426,7.5852,-0.8160,0.0501,-1.6872,0.5205,18.28
306649275137300,117048,-1.6570,6.9141,0.0395,-0.2786,-1.9914,0.4533,18.27
306649286357600,117059,-1.5218,7.4465,0.7406,-0.9432,-2.1942,0.4252,18.27
306649297510300,117070,-5.0309,6.2740,1.1462,-1.8411,-2.3592,0.4459,18.29
306649309108500,117082,-0.6365,8.1811,0.7609,-2.2749,-2.4483,0.6463,18.29
306649320197700,117093,-2.0339,8.5053,0.5755,-3.2889,-2.3213,0.8283,18.31
306649331366400,117104,-3.2818,8.1846,0.8973,-3.6041,-2.2407,1.2449,18.31
306649342307400,117115,-2.3761,7.7898,1.6534,-3.6420,-2.0501,0.9542,18.29
306649354157900,117127,-1.1976,8.1272,2.4096,-3.3121,-2.0415,1.0446,18.33
306649365343600,117138,-0.7729,9.7651,3.0544,-3.2413,-2.0818,1.1558,18.33
306649376359800,117149,-1.5984,11.0357,3.6108,-3.8631,-2.1173,1.0617,18.27
306649388022200,117160,-1.4321,10.9783,4.1504,-4.6059,-2.1405,0.8149,18.27
306649399315700,117173,-1.0540,10.5571,4.4590,-5.0971,-2.1515,0.4691,18.29
306649410384400,117184,-1.6223,10.1659,4.6648,-5.4269,-2.1710,0.0965,18.29
306649422142200,117195,-2.7422,9.4959,4.6576,-6.1600,-2.4520,-0.6610,18.25
306649433336800,117207,-2.9145,9.1633,5.7057,-6.3994,-2.7086,-1.0788,18.30
306649444488200,117218,-3.3488,8.8917,10.7880,-5.4074,-2.7025,-1.6506,18.30
306649456055400,117229,-0.0514,5.5310,6.2094,-3.6090,-2.1845,-2.3298,18.29
306649467289300,117240,1.4836,6.1460,5.5944,-2.3885,-2.1845,-2.3640,18.29
306649478389600,117252,0.8243,7.6642,8.6501,-2.1600,-2.2626,-2.1502,18.30
306649490151300,117263,1.0050,6.2692,8.6895,-2.8918,-1.9426,-2.1845,18.30
306649501271400,117274,-0.0096,4.6241,7.2706,-2.8698,-1.6603,-2.1783,18.27
306649512238500,117285,-0.1053,4.7186,7.8975,-2.1832,-1.6396,-1.8509,18.25
306649523267800,117297,0.2668,4.6923,8.3713,-2.1576,-1.5626,-1.7459,18.25
306649535297500,117308,0.5635,4.5212,9.2148,-2.4154,-1.4783,-1.5882,18.27
306649546248300,117319,0.9476,4.0295,9.8979,-2.7477,-1.2914,-1.4404,18.27
306649557433200,117330,1.5182,3.0712,9.9876,-2.7965,-1.0201,-1.2975,18.27
306649569138500,117342,1.9502,2.5196,10.1635,-2.4911,-0.7343,-1.0837,18.27
306649580265800,117353,1.5338,2.0100,10.3107,-1.9413,-0.4142,-0.8259,18.29
306649591328600,117364,0.7860,1.4512,10.4973,0.4410,0.0171,-0.3861,18.29
306649603231300,117376,0.3326,2.3163,9.5306,1.9230,0.1148,-0.2358,18.26
306649614257600,117387,0.1256,3.7890,8.8678,3.0177,0.1368,-0.1271,18.29
306649625363800,117398,-0.2441,5.1362,8.3234,3.5601,0.1356,-0.0635,18.29
306649636183500,117409,0.2824,6.2417,7.6810,3.6334,0.1564,-0.0672,18.28
306649648185000,117421,0.9763,6.8698,7.6630,3.2498,0.1662,-0.1014,18.28
306649659195000,117432,1.0193,7.3807,7.7695,2.8124,0.1967,-0.1772,18.30
306649670172800,117443,0.5695,7.5996,7.0600,2.5119,0.3030,-0.2700,18.30
306649681363100,117454,-0.1232,7.9705,6.9954,2.0733,0.5681,-0.3482,18.28
306649693289100,117466,-0.2130,7.7874,6.4989,1.7165,0.7172,-0.3470,18.26
306649704295200,117477,-0.2608,7.7492,6.6712,1.2816,0.8699,-0.3030,18.26
306649715473500,117488,1.0050,6.5599,7.4106,0.8943,0.9505,-0.3348,18.29
306649727197400,117499,0.5348,6.0395,7.7324,0.9652,0.8186,-0.5559,18.29
306649738124200,117511,-0.2931,6.8925,6.9488,1.4343,0.6927,-0.6781,18.28
306649749321200,117522,-0.6987,6.8411,6.6305,1.3048,0.6720,-0.6292,18.28
306649760380600,117533,-1.1210,6.6233,7.0122,1.0091,0.6414,-0.4924,18.23
306649772038900,117544,-1.2024,6.9081,6.8614,1.3402,0.5363,-0.3506,18.32
306649783315300,117556,-2.5938,6.9320,6.5599,1.4905,0.5034,-0.2908,18.32
306649794392400,117567,-1.0648,6.9308,6.2166,1.5528,0.5302,-0.1173,18.25
306649805486100,117578,0.2489,8.6201,6.5539,1.5369,0.5938,0.0024,18.25
306649817308200,117590,-0.1914,9.2913,6.5635,1.1619,0.7306,-0.0990,18.30
306649828249900,117601,-0.7705,7.8437,5.8708,0.5217,0.8687,-0.2773,18.30
306649839437000,117612,-1.5948,6.8447,5.6243,0.2211,0.8906,-0.2749,18.29
306649851358500,117623,-1.6343,7.3555,6.4977,0.3751,0.8613,-0.1381,18.29
306649862103000,117636,-1.2467,7.8652,6.2381,0.8796,0.8479,-0.0538,18.27
306649873203100,117647,-1.5565,7.7324,5.9390,0.8955,0.8454,-0.1283,18.27
306649884379400,117658,-1.8042,7.9657,5.5765,1.0592,0.8442,-0.2529,18.27
306649896219100,117669,-1.6247,8.7350,5.0584,1.0165,0.8418,-0.3836,18.29
306649907179800,117681,-1.8413,8.6668,4.6959,0.5901,0.8210,-0.5241,18.29
306649918407700,117692,-2.0327,7.9143,4.5655,0.1332,0.7734,-0.6316,18.30
306649930144800,117703,-2.5507,7.1629,5.0620,-0.1820,0.7294,-0.5986,18.30
306649941201700,117714,-2.4610,6.4702,6.2847,-0.3775,0.6524,-0.2908,18.30
306649952472600,117726,-2.5496,6.5456,6.4786,-0.1429,0.5290,-0.2126,18.25
306649963624500,117737,-2.5579,7.0134,6.2213,0.0709,0.5278,-0.1698,18.25
306649975081100,117748,-3.1095,6.9452,5.8588,0.1674,0.5315,-0.1613,18.27
306649986349100,117760,-2.2193,8.1631,5.4532,0.4459,0.5791,-0.1723,18.27
306649997359600,117771,-2.2229,8.0411,5.5609,0.2712,0.6671,-0.1869,18.27
306650008482100,117782,-1.9693,8.2146,5.6877,0.1393,0.7306,-0.2676,18.27
306650020231800,117793,-2.3354,7.9071,5.7033,0.0415,0.7758,-0.3983,18.27
306650031300300,117805,-3.0843,8.4383,4.8562,-0.3067,0.9835,-0.6610,18.27
306650042323500,117816,-3.3428,8.1165,5.6291,-0.5693,1.0580,-0.7611,18.31
306650054121900,117827,-3.1801,6.9356,6.0239,-0.4203,1.0605,-0.8870,18.28
306650065336200,117838,-3.1980,6.6844,5.9689,-0.1820,0.9542,-0.9529,18.28
306650076299300,117850,-2.8570,6.2369,6.1196,0.0733,0.7648,-1.0299,18.34
306650087337400,117861,-3.3392,6.0885,5.6219,0.5400,0.4997,-1.0336,18.34
306650099172400,117872,-3.2662,6.2836,5.0309,0.9077,0.2590,-0.9065,18.30
306650110262400,117883,-4.3717,6.8028,5.4568,0.9872,0.1307,-0.6768,18.30
306650121424300,117895,-2.7601,6.7537,5.7081,0.0867,-0.0696,-0.4032,18.30
306650133143700,117906,-2.3378,7.0780,6.3254,-0.2199,0.0562,-0.3763,18.30
306650144202900,117917,-2.4849,7.3639,6.8303,-0.0501,0.3433,-0.3616,18.30
306650155304600,117928,-2.9994,7.3962,6.2704,0.3115,0.6536,-0.3702,18.29
306650166446400,117940,-3.7448,7.8102,4.8383,0.4740,0.8589,-0.3433,18.29
306650178230200,117951,-3.9182,8.0818,3.6060,0.2786,0.8882,-0.2688,18.31
306650189207000,117962,-3.7998,8.8834,3.5342,0.3311,0.7648,-0.1173,18.31
306650200372200,117974,-3.8512,8.4562,3.6838,0.3604,0.6402,-0.2040,18.32
306650211287600,117985,-2.6405,8.5352,4.2903,-0.2492,0.3787,-0.4655,18.32
306650223203000,117996,-2.6716,8.5591,4.7091,-0.4227,0.4496,-0.4716,18.32
306650234325500,118007,-2.2660,8.5184,4.9759,-0.3726,0.5962,-0.4826,18.35
306650245332700,118019,-2.4311,8.3617,4.9711,-0.2859,0.7587,-0.5718,18.35
306650257072600,118030,-3.1202,8.1906,4.7414,-0.2016,0.8552,-0.7294,18.28
306650268238200,118041,-4.1432,8.2253,4.1982,-0.2443,0.8491,-0.9933,18.28
306650279315400,118052,-5.5011,8.2134,3.4911,-0.4117,0.7648,-1.2999,18.30
306650290312100,118064,-6.8160,7.8963,3.1346,-0.4362,0.6096,-1.0702,18.30
306650302239700,118075,-6.4259,7.1450,3.8477,-1.0287,0.1124,-1.1008,18.30
306650313301800,118086,-6.1555,6.4857,4.8646,-1.1215,-0.0195,-0.9725,18.32
306650324293000,118097,-6.0670,5.9809,5.4927,-1.0067,-0.0428,-0.8320,18.32
306650336049800,118109,-5.8493,5.8217,5.7775,-0.7599,0.0061,-0.7465,18.32
306650347167100,118120,-5.6997,6.1388,5.7978,-0.4972,0.0843,-0.7819,18.32
306650358194800,118131,-5.7224,6.6377,5.2989,-0.2969,0.1454,-0.8919,18.30
306650369258900,118142,-3.2698,6.9523,5.2989,-0.0916,0.1955,-0.9737,18.30
306650381208200,118154,-7.2323,5.7368,4.3537,0.1136,0.2639,-1.3085,18.32
306650392270800,118165,-6.9571,6.4714,4.5045,-0.0696,0.3311,-1.1203,18.32
306650403593200,118176,-6.4235,6.8435,4.3681,-0.3286,0.2749,-1.0372,18.32
306650415168700,118188,-5.8469,6.4044,4.4303,-0.4887,0.2529,-1.0434,18.32
306650426220000,118199,-5.7787,6.5623,5.2295,-0.5266,0.2639,-1.0788,18.32
306650437414200,118210,-5.2499,6.4487,5.6219,-0.6292,0.2541,-1.1802,18.32
306650449108700,118221,-4.9819,6.2776,5.6327,-0.6695,0.2224,-1.3549,18.32
306650460179200,118233,-4.2126,5.6004,6.9188,-0.7563,0.2346,-1.5223,18.33
306650471206200,118245,-6.9547,4.9974,6.0933,-0.1784,0.2089,-1.7752,18.28
306650482365900,118256,-7.6534,4.5739,5.4927,-0.2944,0.2786,-1.5553,18.28
306650494247100,118267,-7.5793,5.1087,5.6662,-0.4239,0.2724,-1.2498,18.27
306650505243300,118279,-6.6138,4.9412,6.1364,-0.6255,0.2419,-1.0238,18.27
306650516461500,118290,-6.3601,4.7557,6.6425,-0.5767,0.2590,-0.8552,18.31
306650528063500,118301,-6.1232,4.7031,6.9607,-0.4044,0.3763,-0.6842,18.31
306650539270800,118312,-6.2154,4.9543,6.8028,-0.1906,0.5095,-0.5461,18.31
306650550381400,118324,-6.9643,5.6662,5.8576,0.1148,0.6646,-0.5082,18.31
306650561350500,118335,-6.8842,6.4128,5.2319,0.4862,0.7367,-0.6329,18.29
306650573144700,118346,-6.8088,6.7920,4.2174,0.3714,0.5681,-0.8442,18.33
306650584360300,118358,-6.5145,6.3194,3.7244,0.0183,0.3714,-1.0482,18.33
306650595392900,118369,-6.4582,5.3252,3.9171,-0.3274,0.2065,-1.1985,18.32
306650607202900,118380,-6.4056,4.4040,4.6074,-0.5046,0.1784,-1.2278,18.32
306650618335400,118391,-6.6102,3.4385,5.1159,-0.4924,0.2602,-1.0641,18.32
306650629443100,118403,-6.7992,3.1621,5.2869,-0.2541,0.3958,-0.7611,18.32
306650640379400,118414,-6.9823,3.9721,4.6840,0.0489,0.6805,-0.2468,18.30
306650652168800,118425,-7.1198,4.5571,4.1647,0.2382,0.7282,-0.1564,18.33
306650663231100,118436,-7.2682,4.9412,3.7651,0.1747,0.6927,-0.1845,18.33
306650674377000,118448,-7.6774,5.2056,3.7400,0.0904,0.6194,-0.2969,18.33
306650686083300,118459,-7.9214,4.9065,3.9051,-0.0122,0.5473,-0.4288,18.33
306650697286900,118470,-8.0291,4.4901,4.5906,-0.0122,0.4423,-0.5376,18.33
306650708232200,118481,-8.3354,4.0092,3.7041,0.0623,0.3567,-0.6060,18.33
306650719414600,118493,-8.3569,4.3980,4.3597,-0.1307,0.2248,-0.5620,18.33
306650731114700,118504,-8.0997,4.1480,4.6528,-0.1808,0.0770,-0.4239,18.33
306650742177000,118515,-8.2050,4.1085,4.8921,-0.1527,0.0904,-0.3543,18.29
306650752892000,118526,-8.3725,3.9338,4.8383,-0.0770,0.1246,-0.3128,18.30
306650764034000,118538,-8.2672,3.9003,4.6899,-0.0147,0.1527,-0.2724,18.30
306650775879700,118549,-9.0652,4.1456,4.7821,0.0147,0.1478,-0.2236,18.32
306650787056400,118560,-9.1609,4.3597,4.8203,0.0525,0.0745,-0.1112,18.32
306650798139200,118572,-8.9755,4.5823,4.8873,0.0476,-0.0342,0.0281,18.30
306650809181500,118583,-8.5843,4.7569,4.9005,0.0501,-0.1466,0.1454,18.30
306650821073800,118594,-7.4213,4.9759,4.8371,0.0000,-0.2065,0.2468,18.34
306650832212400,118605,-6.9559,4.9352,4.5655,-0.0159,-0.1979,0.1979,18.29
306650843116400,118617,-6.5480,4.8622,4.5045,-0.0379,-0.1772,0.0721,18.29
306650854423800,118628,-6.3494,4.6421,4.6241,-0.0501,-0.0929,-0.0611,18.29
306650866201400,118639,-6.4917,4.6229,4.6421,-0.0464,0.0037,-0.1466,18.29
306650877193800,118650,-6.8195,4.5296,4.6050,-0.0757,0.0806,-0.1710,18.30
306650888380800,118662,-7.2694,4.5188,4.7402,-0.1148,0.1319,-0.1552,18.30
306650900113000,118673,-8.0686,4.5715,4.8024,-0.1185,0.1344,-0.1332,18.30
306650911176400,118684,-8.3354,4.3765,4.9639,-0.1429,0.0415,-0.0819,18.28
306650922285400,118695,-7.9143,4.3394,4.8251,-0.1100,-0.0147,-0.1222,18.28
306650933432900,118707,-7.5434,4.0044,4.7701,-0.0904,-0.0220,-0.1772,18.32
306650945342000,118718,-7.4668,3.7615,4.6744,-0.0709,0.0110,-0.1845,18.32
306650956249000,118729,-7.3316,3.8704,4.6696,-0.0367,0.0721,-0.1564,18.33
306650967268800,118740,-7.2431,4.0247,4.8287,0.0269,0.1808,-0.1332,18.33
306650978308000,118752,-7.4130,4.3561,4.5595,0.1124,0.2798,-0.1503,18.26
306650990204100,118763,-8.2134,4.7426,3.9506,0.1344,0.2944,-0.2028,18.26
306651001337100,118774,-7.9777,4.5057,4.2341,-0.0562,0.1051,-0.3054,18.33
306651012261200,118786,-7.6606,4.3837,4.4782,-0.0855,0.0330,-0.3775,18.27
306651024170100,118797,-7.6941,4.1839,4.5332,-0.0794,0.0367,-0.4435,18.27
306651035240700,118808,-7.6642,3.9697,4.3944,-0.0489,0.0623,-0.4753,18.29
306651046346200,118819,-7.9155,4.1492,4.1276,-0.0550,0.0452,-0.4862,18.29
306651057286900,118831,-8.4658,4.1480,4.4518,-0.1173,-0.0086,-0.5143,18.32
306651069241500,118842,-8.4838,3.9996,4.7581,-0.1051,-0.0354,-0.5424,18.32
306651080195400,118853,-7.9298,3.5210,4.5583,-0.0281,-0.0220,-0.5327,18.33
306651091213800,118864,-10.1336,2.5675,4.2927,0.1271,-0.0244,-0.3934,18.31
306651102890800,118876,-8.1715,2.4251,4.4506,0.2187,-0.0867,-0.1772,18.31
306651114038300,118887,-8.2038,2.6489,4.4853,0.3433,-0.0892,-0.0904,18.30
306651124999500,118898,-8.2540,3.3464,4.0235,0.4056,-0.1539,-0.0415,18.30
306651136031100,118909,-8.1894,3.3918,4.0475,0.3885,-0.1857,-0.0281,18.33
306651148111100,118921,-8.3880,3.8381,3.7256,0.3409,-0.2431,-0.0403,18.33
306651158976700,118932,-8.1942,3.8393,4.2329,0.2175,-0.3189,-0.0904,18.36
306651169993200,118943,-8.1655,4.2030,4.2018,0.1894,-0.1906,-0.0770,18.36
306651181034500,118955,-8.0842,4.1061,4.3047,0.1698,-0.2065,-0.1100,18.32
306651193128600,118966,-7.9011,4.1025,4.3837,-0.0318,-0.2395,-0.1405,18.29
306651204092000,118977,-7.9131,4.3143,4.4722,-0.0354,-0.2627,-0.1784,18.29
306651215166600,118988,-7.9286,4.1659,3.9661,0.1038,-0.3067,-0.2724,18.31
306651226971700,119000,-7.7659,3.8261,4.5571,0.0269,-0.3958,-0.3164,18.31
306651238040400,119011,-7.8772,3.4756,4.6660,0.0623,-0.4472,-0.3555,18.33
306651249076600,119022,-8.0040,3.5258,4.4542,0.1381,-0.4972,-0.3665,18.33
306651260196100,119033,-7.9274,3.6383,4.6792,0.0794,-0.5143,-0.3555,18.32
306651272024800,119045,-8.0327,3.4636,5.0501,0.0965,-0.4300,-0.2920,18.28
306651282972400,119056,-7.8879,3.4983,4.4913,0.2028,-0.3396,-0.2248,18.28
306651294015900,119067,-7.9346,3.7328,4.2963,0.2187,-0.3519,-0.1991,18.34
306651305842900,119078,-8.0279,3.6491,4.1300,0.2065,-0.4435,-0.2566,18.34
306651316898900,119090,-8.0997,3.6455,4.5858,0.1820,-0.5156,-0.2932,18.32
306651327989500,119101,-7.9944,3.7137,4.8371,0.1930,-0.5339,-0.3201,18.32
306651339109300,119112,-7.9418,3.9769,4.7773,0.2101,-0.4960,-0.3201,18.29
306651350995500,119124,-7.8449,3.7256,4.8993,0.1662,-0.4300,-0.3262,18.30
306651361951400,119136,-7.7300,3.5521,4.9795,0.1833,-0.3885,-0.2883,18.30
306651372960700,119147,-7.8987,3.5785,4.8359,0.2321,-0.3470,-0.2456,18.34
306651384974100,119158,-7.9537,3.6383,4.7438,0.2138,-0.3128,-0.2101,18.34
306651395998500,119170,-8.0495,3.5916,4.7175,0.1393,-0.2859,-0.1796,18.27
306651406927100,119181,-7.9681,3.3619,4.8861,0.1026,-0.2529,-0.1552,18.27
306651418863600,119192,-7.9286,3.2686,5.0237,0.1442,-0.2101,-0.1148,18.28
306651430035400,119203,-7.9537,3.7316,4.6899,0.2162,-0.1613,-0.0354,18.28
306651440923600,119215,-8.0327,3.8273,4.6002,0.2297,-0.0990,-0.0183,18.28
306651452002600,119226,-7.8903,3.6586,4.7737,0.1784,-0.0855,-0.0110,18.30
306651463897600,119237,-7.8855,3.8094,4.5739,0.1833,-0.1100,-0.0318,18.30
306651474876900,119248,-7.8066,4.0857,4.5332,0.1503,-0.1478,-0.0672,18.23
306651486139300,119260,-7.8257,4.4219,4.4148,0.0562,-0.2040,-0.1271,18.23
306651497078100,119271,-7.8066,3.8668,4.8933,-0.1038,-0.2847,-0.2126,18.30
306651508975500,119282,-7.7874,3.4971,5.1697,-0.0819,-0.2358,-0.2224,18.30
306651519959300,119293,-7.9095,4.0654,4.9113,-0.1271,-0.1637,-0.1515,18.30
306651530974100,119305,-7.8102,2.3390,5.2929,-0.2957,-0.1319,-0.1283,18.30
306651542859600,119316,-7.8437,2.8977,5.3599,-0.0965,-0.0892,-0.0660,18.30
306651553992500,119327,-7.9573,3.3284,4.9579,0.0599,-0.1124,-0.0354,18.29
306651565093600,119339,-7.8855,3.6610,4.8287,0.0440,-0.1063,-0.0183,18.29
306651576155300,119350,-7.8544,3.7723,4.7175,-0.0257,-0.1185,-0.0281,18.32
306651588056500,119361,-7.8616,3.7173,4.8981,-0.1075,-0.1332,-0.0403,18.32
306651599097900,119372,-7.9214,3.5210,5.0166,-0.1478,-0.1319,-0.0464,18.33
306651610127600,119384,-8.0255,3.2447,5.0213,-0.0916,-0.1038,-0.0379,18.34
306651621919100,119395,-7.9274,3.1837,5.1326,-0.0476,-0.0953,-0.0367,18.34
306651632987000,119406,-7.9059,3.2734,5.0847,-0.0037,-0.0819,-0.0269,18.28
306651643930300,119417,-7.9310,3.3117,4.9962,0.0183,-0.0684,-0.0195,18.28
306651654903700,119429,-7.9681,3.3787,4.9675,0.0330,-0.0623,-0.0159,18.28
306651666975300,119440,-7.8951,3.3799,4.9663,0.0342,-0.0599,-0.0183,18.28
306651677991300,119451,-7.8796,3.4744,4.9137,0.0440,-0.0611,-0.0183,18.34
306651689051900,119462,-7.8449,3.4744,5.0166,0.0415,-0.0684,-0.0220,18.34
306651699863700,119474,-7.7815,3.6730,4.9352,0.0232,-0.0770,-0.0293,18.27
306651711835100,119485,-7.8054,3.6048,5.0034,-0.0183,-0.0880,-0.0391,18.30
306651722850800,119496,-7.8197,3.4660,5.0967,-0.0391,-0.0929,-0.0464,18.30
306651733857600,119507,-7.7121,3.3823,5.0907,-0.0379,-0.0916,-0.0440,18.29
306651744939200,119519,-7.7456,3.3488,5.0788,-0.0244,-0.0916,-0.0269,18.29
306651756884600,119530,-7.9202,3.3380,5.0728,-0.0024,-0.0929,-0.0134,18.32
306651767930100,119541,-7.9406,3.5091,5.0034,0.0086,-0.0855,-0.0073,18.32
306651779053000,119553,-7.9537,3.5390,4.9807,-0.0171,-0.0794,-0.0147,18.29
306651790899800,119564,-7.7922,3.4457,5.0225,-0.1038,-0.0831,-0.0257,18.29
306651801894600,119575,-7.9478,3.3332,5.0393,-0.1148,-0.0806,-0.0195,18.29
306651812982000,119586,-7.8903,3.3021,5.0357,-0.1026,-0.0782,-0.0220,18.29
306651824104400,119598,-7.7934,3.4122,5.0022,-0.0929,-0.0757,-0.0171,18.29
306651836041300,119609,-7.7779,3.4493,5.0501,-0.1100,-0.0745,-0.0037,18.30
306651847083600,119620,-7.8724,3.4672,5.0859,-0.1173,-0.0770,0.0000,18.30
306651858144400,119631,-7.7946,3.2913,5.1948,-0.1100,-0.0757,-0.0073,18.28
306651869042400,119643,-7.8987,3.1561,5.1697,-0.0819,-0.0574,0.0134,18.28
306651880983300,119654,-7.9801,2.9910,5.2187,-0.0183,-0.0476,0.0012,18.32
306651891978400,119665,-7.9944,2.9324,5.2881,0.0574,-0.0476,-0.0122,18.32
306651903165100,119676,-7.8855,3.1286,5.1829,0.1491,-0.0305,-0.0037,18.32
306651914154900,119688,-7.8437,3.4397,4.9053,0.1967,-0.0208,0.0086,18.31
306651926018200,119699,-7.8377,3.6969,4.7809,0.1674,-0.0318,0.0073,18.31
306651937022000,119710,-7.8425,3.8261,4.7868,0.0904,-0.0550,-0.0110,18.34
306651948130300,119721,-7.8425,3.7125,4.8957,0.0049,-0.0770,-0.0403,18.34
306651959176400,119733,-7.7432,3.3727,5.1745,-0.0660,-0.0892,-0.0599,18.31
306651970986900,119744,-7.7420,3.2518,5.2415,-0.1100,-0.0782,-0.0403,18.30
306651982026700,119755,-7.8820,3.1502,5.3157,-0.0770,-0.0611,-0.0122,18.30
306651993091200,119767,-7.8580,3.1908,5.2403,-0.0049,-0.0489,-0.0098,18.29
306652004194200,119778,-7.8592,3.4433,5.0608,0.0440,-0.0428,-0.0122,18.29
306652015960800,119789,-7.8580,3.4074,5.0572,0.0452,-0.0464,-0.0220,18.33
306652027068700,119800,-7.8532,3.3284,5.0883,0.0538,-0.0489,-0.0281,18.33
306652038097000,119812,-7.8652,3.3320,5.0429,0.0806,-0.0489,-0.0220,18.32
306652049980900,119823,-7.8185,3.3057,5.1637,0.1112,-0.0513,-0.0183,18.32
306652060900600,119834,-7.6822,3.5115,5.1039,0.2773,-0.0721,-0.0171,18.32
306652072060800,119845,-7.9753,3.6395,4.7617,0.3213,-0.0867,-0.0318,18.31
306652083052900,119857,-7.9992,3.1214,5.0668,0.2957,-0.1075,-0.0428,18.31
306652095137200,119868,-7.9537,3.0832,5.4449,0.4166,-0.1234,-0.0391,18.30
306652105878100,119879,-8.7601,2.8128,5.0919,0.4960,-0.1075,-0.0538,18.30
306652117038800,119890,-9.2889,2.7482,4.8227,0.5730,-0.1796,0.0244,18.30
306652128252300,119902,-8.7135,3.1549,5.2211,0.5938,-0.2871,0.1881,18.30
306652140156800,119913,-7.7192,3.5892,5.1864,0.6023,-0.2578,0.3115,18.28
306652150980600,119924,-7.6822,3.6359,4.9807,0.5095,-0.1943,0.3115,18.28
306652161970100,119936,-7.6164,3.7519,4.8802,0.4887,-0.1613,0.3201,18.28
306652173290100,119947,-7.4776,3.9685,4.7833,0.4496,-0.1478,0.3213,18.30
306652185115100,119958,-7.4405,4.0822,4.7115,0.4081,-0.1332,0.3018,18.30
306652196118900,119969,-7.3484,4.2568,4.7055,0.3629,-0.1197,0.2676,18.37
306652207019000,119981,-7.1593,4.3789,4.7198,0.3067,-0.0977,0.2114,18.37
306652218970600,119992,-7.1270,4.4267,4.6732,0.2456,-0.0721,0.1442,18.33
306652230170400,120003,-7.4321,4.3705,4.6481,0.0916,-0.0489,0.0379,18.30
306652241058200,120014,-7.5206,4.2544,4.8239,0.0257,-0.0550,0.0208,18.30
306652252183100,120026,-7.6283,4.1575,5.0285,-0.0122,-0.0635,0.0171,18.31
306652264076300,120037,-7.6391,4.0965,5.1206,-0.0232,-0.0648,0.0098,18.31
306652275009700,120048,-7.8174,4.0104,5.1410,-0.0171,-0.0562,0.0000,18.28
306652285944300,120059,-7.9992,3.8393,5.0321,-0.0122,-0.0562,-0.0061,18.28
306652297048000,120071,-8.0495,3.7089,5.0560,0.0000,-0.0794,-0.0049,18.31
306652308902300,120082,-8.1105,3.6503,4.9974,0.0147,-0.1100,-0.0086,18.31
306652320149400,120093,-8.0638,3.6622,5.0130,0.0244,-0.1796,0.0147,18.31
306652331280600,120104,-8.0877,3.7208,5.0752,0.0721,-0.2004,0.0452,18.29
306652342168800,120116,-8.0363,3.8620,5.0225,0.1319,-0.2175,0.0916,18.29
306652353926900,120127,-7.9848,4.0487,4.9555,0.1662,-0.2321,0.1527,18.30
306652365090500,120138,-7.9358,4.2365,4.9627,0.1881,-0.2395,0.2285,18.30
306652376092700,120150,-7.8269,4.5153,4.9854,0.2077,-0.2407,0.3128,18.32
306652387136000,120161,-7.7372,4.7833,4.8682,0.2187,-0.2431,0.3800,18.32
306652398998100,120172,-7.5254,5.0058,4.8431,0.2260,-0.2541,0.4300,18.28
306652410079100,120183,-7.1186,5.5011,4.8144,0.1759,-0.2199,0.4740,18.28
306652421140500,120195,-7.0732,5.5944,4.7641,0.1295,-0.2114,0.4667,18.28
306652432169000,120206,-7.0768,5.4652,4.6744,0.0696,-0.2260,0.4374,18.31
306652444116000,120217,-6.8459,5.3623,4.7773,-0.0244,-0.2590,0.4435,18.31
306652455116700,120228,-6.6425,5.2678,4.9795,-0.1576,-0.2724,0.4716,18.32
306652466190800,120240,-6.5551,5.1458,5.1494,-0.2211,-0.2566,0.4862,18.32
306652478079200,120251,-6.5109,5.1470,5.2008,-0.2590,-0.2334,0.5009,18.34
306652488969300,120262,-6.3625,5.2331,5.1936,-0.2847,-0.2150,0.5070,18.34
306652500190400,120273,-5.9127,5.1063,5.3994,-0.3836,-0.1723,0.4691,18.35
306652511159000,120285,-5.9270,4.9125,5.5262,-0.3861,-0.1405,0.4019,18.30
306652523098900,120296,-5.9761,4.7462,5.6447,-0.3580,-0.1100,0.3360,18.30
306652534199400,120307,-6.0072,4.7366,5.7033,-0.3286,-0.0819,0.2944,18.30
306652545174000,120318,-6.0156,4.8251,5.7787,-0.3189,-0.0586,0.2786,18.30
306652556943300,120330,-6.1149,4.8120,5.8074,-0.3311,-0.0183,0.2712,18.30
306652568130400,120341,-6.2285,4.7809,5.7440,-0.3335,0.0318,0.2566,18.30
306652579162000,120352,-6.4977,4.5787,5.4353,-0.3286,0.0721,0.2211,18.33
306652590191300,120364,-6.5563,4.4483,5.4018,-0.3690,0.0990,0.0929,18.31
306652602059700,120375,-6.8997,4.3490,5.3073,-0.4142,0.1222,0.0037,18.31
306652613124400,120386,-7.3364,4.0546,5.1972,-0.4814,0.1478,-0.0574,18.32
306652624145900,120397,-7.5948,3.8656,5.0967,-0.4850,0.1466,-0.0562,18.32
306652635193100,120409,-7.5972,3.8847,5.1206,-0.4801,0.1234,-0.0049,18.30
306652647081800,120420,-5.3599,4.3286,5.2140,-0.5327,0.1002,0.0525,18.30
306652658025100,120431,-8.2409,4.1827,5.8887,-0.4716,0.1283,0.0929,18.30
306652669334400,120442,-7.0146,4.9065,5.0776,-0.3128,0.2211,0.0049,18.30
306652680215000,120454,-7.2897,4.9878,4.9735,-0.4007,0.1527,0.0232,18.32
306652692031800,120465,-8.4766,4.1001,5.2128,-0.6023,0.0904,-0.0122,18.30
306652703099800,120476,-8.2253,3.6419,5.5633,-0.3238,0.0440,-0.0843,18.30
306652714103500,120487,-7.1557,4.6349,5.5059,-0.2077,0.0550,-0.1173,18.34
306652725165200,120499,-8.0578,4.0857,5.3192,-0.3335,0.0208,-0.0660,18.34
306652737117800,120510,-8.1380,4.0786,5.2857,-0.2749,0.0147,-0.0794,18.31
306652748087900,120521,-8.1512,4.1779,5.3599,-0.2297,-0.0134,-0.1295,18.31
306652759176400,120532,-7.9657,3.6287,4.9196,-0.3213,-0.2236,-0.0831,18.31
306652770935400,120544,-8.0758,3.5964,5.7751,-0.4520,-0.2896,-0.1002,18.28
306652781885000,120555,-7.7635,2.7637,5.2798,-0.3384,-0.2749,-0.0904,18.28
306652793095100,120566,-7.4010,3.3535,5.3288,-0.2016,-0.3176,0.0122,18.31
306652804177900,120578,-7.2048,3.5509,5.3539,-0.2016,-0.2944,0.0147,18.31
306652815835000,120589,-7.3173,3.1681,5.0321,-0.3348,-0.3054,-0.0916,18.30
306652826911500,120600,-7.4524,3.1262,5.1194,-0.2370,-0.3250,-0.1784,18.30
306652837952700,120611,-7.5003,3.0497,5.1159,-0.1710,-0.2847,-0.2224,18.32
306652849933300,120623,-8.0255,2.7446,5.2020,-0.1344,-0.2346,-0.2309,18.34
306652860880900,120634,-8.0219,2.6393,5.2762,-0.1038,-0.2407,-0.1955,18.34
306652871983600,120645,-8.0160,2.6895,5.5968,-0.0623,-0.2492,-0.1478,18.32
306652883017000,120656,-8.0435,2.6393,5.8146,-0.0428,-0.2346,-0.1234,18.32
306652894962200,120668,-8.1428,2.6524,5.8887,-0.0110,-0.2248,-0.1515,18.34
306652905943800,120679,-8.5376,2.7111,5.8253,0.0110,-0.2358,-0.2272,18.34
306652916995100,120690,-9.5450,2.6871,5.6004,-0.0110,-0.2786,-0.3018,18.30
306652928891300,120701,-8.9659,2.5723,5.2570,-0.1368,-0.3824,-0.3176,18.30
306652939908900,120713,-8.2158,2.6429,6.0060,-0.4142,-0.6646,-0.2321,18.34
306652950955200,120724,-6.8626,2.1200,6.8411,-0.3274,-0.7391,-0.2358,18.31
306652961993900,120735,-7.2275,2.1835,7.2251,0.2761,-0.6952,-0.2737,18.31
306652973864700,120747,-7.5805,2.2026,6.5396,0.8528,-0.5315,-0.2712,18.29
306652984955400,120758,-7.8509,2.7673,5.7835,1.1130,-0.3861,-0.1845,18.29
306652995966100,120770,-7.5374,3.5198,5.1529,1.0690,-0.2944,-0.1026,18.29
306653007822500,120781,-7.0301,4.0187,4.8168,0.7062,-0.2896,-0.1210,18.29
306653018888700,120793,-6.4869,4.0642,5.0919,0.3861,-0.3311,-0.4178,18.32
306653029921900,120804,-6.4068,4.1013,5.1733,0.1833,-0.3812,-0.5596,18.30
306653041897200,120815,-6.4977,3.8596,5.3910,0.0953,-0.3189,-0.6646,18.30
306653052872700,120826,-6.6616,3.6287,5.6363,0.1063,-0.2688,-0.7184,18.27
306653063910500,120838,-6.7167,3.5761,5.6638,0.1918,-0.2676,-0.7636,18.27
306653074913800,120849,-6.8339,3.6634,5.6686,0.2529,-0.3005,-0.8149,18.32
306653086903100,120860,-7.2754,3.5294,5.6315,0.2468,-0.3384,-0.8296,18.32
306653097851700,120871,-6.9583,3.1406,6.1472,0.2138,-0.3836,-0.7477,18.32
306653108935500,120883,-6.9703,3.2937,6.7047,0.5864,-0.3616,-0.5046,18.29
306653120937400,120894,-6.7238,3.8046,6.9177,0.8919,-0.2773,-0.3910,18.29
306653132166800,120905,-6.6760,3.7591,7.1426,1.0690,-0.2285,-0.3054,18.31
306653143006100,120916,-6.4343,4.4865,6.6652,1.3610,-0.1527,-0.2798,18.31
306653154108500,120928,-6.4463,4.8706,5.8229,1.5088,-0.0501,-0.3335,18.29
306653166069400,120939,-5.6554,5.6040,5.2283,1.3757,0.0220,-0.4068,18.29
306653177112100,120950,-7.0002,5.2546,5.3910,0.9566,0.0953,-0.4753,18.31
306653188095800,120962,-6.8638,4.8909,4.9268,0.7624,0.1014,-0.5962,18.31
306653200071600,120973,-6.3805,4.5153,5.5298,0.5131,0.0782,-0.8027,18.33
306653210981100,120984,-6.4582,3.8931,5.7966,0.5449,0.1234,-0.8955,18.30
306653221942900,120995,-6.6221,3.6670,6.0622,0.6952,0.2089,-0.9224,18.30
306653232962400,121007,-6.9380,3.5581,6.0395,0.8882,0.3067,-0.9285,18.31
306653244889300,121018,-7.2251,3.6120,5.7559,1.0898,0.3592,-0.9029,18.31
306653255910400,121029,-7.3328,3.7400,5.7212,1.2376,0.4203,-0.8222,18.35
306653267080100,121040,-7.4704,3.8943,5.8935,1.3708,0.5449,-0.7294,18.35
306653277980300,121052,-8.0925,4.4148,5.4580,1.5773,0.7013,-0.6341,18.31
306653289879800,121063,-8.1093,4.1085,5.2510,1.5821,0.8931,-0.4178,18.32
306653300966200,121074,-8.0243,4.3968,4.3848,1.4160,0.9664,-0.2651,18.32
306653312238000,121085,-7.9980,4.7390,3.8022,1.2327,0.9713,-0.1417,18.29
306653324069900,121097,-8.1523,4.7115,3.5498,0.8845,0.9212,-0.0623,18.29
306653335089200,121108,-8.1547,4.5990,3.5390,0.4838,0.8271,0.0208,18.36
306653346188100,121119,-7.9490,4.5511,3.6826,0.1637,0.7098,0.1246,18.36
306653357505000,121131,-7.6367,4.3741,3.8620,-0.0806,0.5974,0.2370,18.31
306653369010800,121142,-6.9177,5.3468,4.0367,-0.2028,0.5095,0.0086,18.31
306653380133900,121153,-7.0241,5.0130,4.1025,-0.3176,0.3738,0.1100,18.34
306653391132300,121164,-7.1414,4.9137,4.1970,-0.2578,0.3250,-0.0440,18.32
306653402347200,121176,-7.4393,4.5488,4.3214,-0.2676,0.3042,-0.1466,18.32
306653414120400,121187,-7.7575,4.3789,4.3143,-0.2443,0.3042,-0.1869,18.35
306653425184100,121198,-7.9226,4.2150,4.1659,-0.3421,0.2993,-0.1698,18.35
306653436253300,121209,-8.0100,4.0020,4.0068,-0.5351,0.2761,-0.1210,18.32
306653447334000,121221,-8.0172,3.8991,4.0164,-0.7135,0.2370,-0.0684,18.32
306653459155000,121232,-8.3868,3.9506,4.4303,-0.7599,0.1869,-0.0733,18.35
306653470182300,121243,-8.5508,4.0247,4.4076,-0.6121,0.1894,-0.0855,18.31
306653481111200,121254,-8.4670,3.8788,4.3777,-0.5730,0.2053,-0.0770,18.31
306653493075600,121266,-8.3426,3.8776,4.4830,-0.5449,0.2150,-0.0391,18.29
306653503984800,121277,-8.2828,3.6574,4.4279,-0.4850,0.2053,0.0159,18.29
306653515110100,121288,-7.8664,3.9410,4.4351,-0.3555,0.1784,0.0990,18.31
306653526193300,121299,-7.6594,4.4339,4.3932,-0.2883,0.1588,0.1943,18.31
306653538030300,121311,-7.7480,4.3537,4.2784,-0.3653,0.1772,0.2578,18.33
306653549174900,121322,-7.0564,4.8778,4.5799,-0.3042,0.2321,0.3665,18.33
306653560245900,121333,-7.2275,4.5117,4.3908,-0.3286,0.2566,0.3250,18.32
306653571118700,121345,-7.2778,4.7904,4.1396,-0.3641,0.2615,0.2908,18.33
306653583139300,121356,-7.1474,4.9232,4.1252,-0.4117,0.2896,0.2370,18.33
306653594161000,121367,-7.0564,4.6863,4.2185,-0.4691,0.3482,0.2004,18.31
306653605208300,121378,-7.4261,4.2269,4.1348,-0.4435,0.4068,0.2004,18.31
306653617069800,121390,-6.6987,4.7569,4.5523,-0.3457,0.4643,0.2321,18.34
306653628144000,121401,-7.0612,4.4471,4.4650,-0.3286,0.5412,0.2346,18.34
306653639174400,121412,-7.3735,4.8024,4.3358,-0.4203,0.6842,0.3873,18.32
306653650333100,121423,-7.4046,4.8981,4.3777,-0.4447,0.7685,0.4630,18.33
306653662111900,121435,-7.6355,4.6361,4.4100,-0.4887,0.8357,0.5388,18.33
306653673161900,121446,-7.6391,4.7067,4.4590,-0.3726,0.8784,0.6182,18.34
306653684361000,121457,-7.5529,5.4509,4.4136,-0.2566,0.9139,0.6683,18.34
306653695293200,121468,-7.7815,5.1147,4.1192,-0.3176,0.9407,0.6475,18.29
306653707007300,121480,-7.9310,5.4915,3.8859,-0.3433,0.8992,0.6353,18.29
306653718394100,121491,-7.9143,5.4413,3.4289,-0.4178,0.8063,0.5620,18.30
306653729264500,121502,-7.6881,5.2415,3.5474,-0.5962,0.6561,0.4557,18.31
306653741340000,121513,-7.6630,4.8933,3.6431,-0.6878,0.5925,0.4643,18.31
306653752145400,121525,-7.4656,4.5200,3.6885,-0.7538,0.5217,0.5046,18.34
306653763230200,121536,-7.3161,4.2975,3.8812,-0.7501,0.4862,0.5534,18.34
306653774060700,121547,-7.4644,4.4160,3.7795,-0.7404,0.5107,0.5632,18.33
306653786036300,121559,-7.6834,4.1755,3.4839,-0.7196,0.5486,0.5351,18.33
306653797139800,121570,-7.9418,4.1145,3.1394,-0.6768,0.5339,0.5180,18.35
306653808076400,121581,-8.5137,3.6586,2.9838,-0.7159,0.4594,0.5217,18.35
306653820082500,121592,-8.3665,3.4708,3.2016,-0.8613,0.2126,0.6280,18.31
306653831119000,121604,-8.1918,3.5641,3.5809,-0.7807,0.1319,0.7001,18.34
306653842004300,121615,-8.1787,3.7938,3.8871,-0.6304,0.1136,0.7550,18.34
306653853094900,121626,-8.3510,4.1994,3.8345,-0.4899,0.1136,0.7440,18.34
306653865036400,121637,-8.4909,4.5703,3.4421,-0.4142,0.0953,0.6658,18.34
306653876085400,121649,-8.5208,4.5966,3.0867,-0.3775,0.0354,0.5412,18.30
306653887197900,121660,-8.5531,4.4794,3.0377,-0.3775,-0.0574,0.3897,18.30
306653898245600,121671,-8.7470,4.2018,3.2806,-0.3800,-0.3079,0.1478,18.32
306653910131000,121682,-8.6106,4.0104,3.3942,-0.2944,-0.4508,0.0635,18.34
306653921141000,121694,-8.5400,4.3430,3.7615,-0.2297,-0.5302,0.0281,18.34
306653932219800,121705,-8.6704,4.1958,4.1874,-0.2957,-0.4875,0.0012,18.34
306653944098800,121716,-8.8331,4.2102,4.2090,-0.1649,-0.3922,-0.0415,18.34
306653955108800,121728,-8.8846,4.4530,3.9721,0.0012,-0.2920,-0.0867,18.34
306653966249600,121740,-8.8032,4.5212,3.7304,0.0586,-0.2358,-0.1197,18.34
306653977291900,121751,-8.9145,4.4542,3.4289,0.0586,-0.2529,-0.1222,18.34
306653989060000,121762,-9.0269,4.1898,3.3188,-0.0929,-0.4178,-0.0293,18.34
306654000102000,121774,-8.7470,4.0822,3.4313,-0.1527,-0.4349,0.0318,18.37
306654011119300,121785,-8.4036,3.9517,3.7986,-0.1417,-0.3531,0.0867,18.34
306654023060700,121796,-8.2612,4.1982,3.7747,-0.0281,-0.2712,0.1319,18.34
306654034142700,121807,-8.1344,4.3681,3.5222,0.0269,-0.2370,0.1319,18.37
306654045214300,121819,-8.0339,4.4842,3.5450,0.0086,-0.2370,0.0916,18.37
306654056263200,121830,-8.0183,4.4279,3.7053,-0.0073,-0.2627,0.0183,18.36
306654068148400,121841,-7.9035,4.5918,3.7723,0.0379,-0.3054,-0.0538,18.36
306654079077800,121852,-7.6140,4.6911,4.0534,-0.0660,-0.2590,-0.1063,18.32
306654090350600,121864,-7.7121,4.4961,4.1157,-0.1100,-0.2016,-0.1038,18.37
306654101245500,121875,-7.8185,4.4207,4.0642,-0.1173,-0.1991,-0.1051,18.37
306654113186800,121886,-7.6881,4.5093,4.1527,-0.0831,-0.2236,-0.0977,18.36
306654124308300,121897,-7.5625,4.5739,4.2796,-0.0379,-0.2260,-0.0977,18.36
306654135195200,121909,-7.3292,4.6409,4.4746,0.0244,-0.2224,-0.1026,18.36
306654147085000,121920,-7.3519,4.6528,4.5117,0.0489,-0.2150,-0.0867,18.36
306654158305400,121931,-7.4118,5.0022,4.3490,0.1185,-0.1613,-0.0794,18.35
306654169298300,121943,-7.4381,5.0524,4.2066,0.0672,-0.1283,-0.1429,18.34
306654180316300,121954,-7.4728,4.9854,4.2939,0.0281,-0.1161,-0.1649,18.34
306654192200000,121965,-7.5912,4.8598,4.3561,0.0134,-0.1100,-0.1442,18.36
306654203213200,121976,-7.6223,4.8646,4.2473,0.0110,-0.1344,-0.1136,18.36
306654214261900,121988,-7.6738,4.8586,4.1647,-0.0257,-0.1723,-0.1014,18.34
306654226167400,121999,-7.4919,4.7509,4.3884,-0.0806,-0.1979,-0.0990,18.34
306654237183500,122010,-7.5661,4.4542,4.4255,-0.1087,-0.1857,-0.0904,18.35
306654248189000,122021,-7.5446,4.6552,4.2138,0.0086,-0.1429,-0.0733,18.35
306654259088700,122033,-7.7073,4.5906,4.0020,0.0122,-0.0660,-0.1100,18.37
306654270990000,122044,-7.9825,4.4901,4.0008,-0.0122,-0.0733,-0.1442,18.36
306654281998500,122055,-8.2193,4.3633,3.8620,-0.0305,-0.1014,-0.1857,18.36
306654293052800,122066,-8.3234,4.2317,3.8010,-0.0391,-0.1381,-0.2162,18.38
306654304351800,122078,-8.3306,3.9613,3.9230,-0.0721,-0.1539,-0.2211,18.38
306654316084100,122089,-8.2875,3.7639,4.0439,-0.0586,-0.1356,-0.2040,18.30
306654327211500,122100,-8.3414,3.6694,4.0068,0.0024,-0.0916,-0.1943,18.30
306654338347000,122112,-8.6130,3.4899,3.6814,0.0550,-0.0513,-0.2346,18.36
306654349985900,122123,-8.7422,3.1693,3.8668,0.0293,-0.0696,-0.2272,18.36
306654361082500,122134,-8.9264,3.0209,4.0786,0.0782,-0.0880,-0.1491,18.36
306654372203400,122145,-8.8283,3.4732,4.0080,0.1918,-0.1148,-0.0379,18.39
306654383379500,122157,-8.4538,4.0487,4.0223,0.2615,-0.1381,0.0354,18.39
