host_timestamp,arduino_timestamp,ax,ay,az,gx,gy,gz,temperature
319061130305700,610046,-3.3272,3.4241,-8.2935,0.0269,-0.0648,-0.0367,20.11
319061141457300,610058,-3.3511,3.4134,-8.3175,0.0305,-0.0635,-0.0403,20.11
319061152526400,610069,-3.4146,3.4193,-8.3450,0.0330,-0.0635,-0.0428,20.14
319061164300100,610080,-3.4720,3.4002,-8.3569,0.0305,-0.0635,-0.0452,20.14
319061175252200,610092,-3.5821,3.3918,-8.3629,0.0232,-0.0635,-0.0428,20.16
319061186394000,610103,-3.6981,3.3643,-8.3797,0.0147,-0.0672,-0.0342,20.16
319061198086300,610114,-3.7926,3.3236,-8.0375,0.0098,-0.0709,-0.0257,20.13
319061209237600,610125,-3.8812,3.3260,-8.2445,-0.0049,-0.0709,0.0159,20.12
319061220378700,610137,-3.8955,3.3476,-8.2050,-0.0159,-0.0635,0.0367,20.12
319061231600400,610148,-3.8620,3.3105,-8.1906,-0.0159,-0.0476,0.0489,20.14
319061243319300,610159,-3.7771,3.2961,-8.2421,-0.0037,-0.0220,0.0599,20.14
319061254409800,610170,-3.5964,3.3224,-8.3067,0.0086,0.0037,0.0709,20.13
319061265404500,610182,-3.4050,3.3667,-8.3904,0.0110,0.0195,0.0843,20.13
319061276702700,610193,-3.2148,3.4301,-8.4562,0.0024,0.0244,0.0892,20.14
319061288329000,610204,-3.0449,3.4780,-8.5376,-0.0073,0.0232,0.0794,20.14
319061299425100,610215,-2.8439,3.5462,-8.6333,-0.0086,0.0293,0.0391,20.12
319061310626100,610227,-2.7984,3.5474,-8.6883,-0.0183,0.0183,0.0147,20.13
319061321578600,610238,-2.8128,3.5378,-8.6369,-0.0293,-0.0073,-0.0049,20.13
319061333314700,610249,-2.8869,3.5139,-8.5005,-0.0464,-0.0391,-0.0171,20.10
319061344464500,610260,-3.0090,3.4624,-8.3282,-0.0660,-0.0672,-0.0257,20.10
319061355609900,610272,-3.0927,3.4493,-8.1404,-0.0684,-0.0782,-0.0293,20.11
319061367359300,610284,-3.1717,3.4947,-8.0590,-0.0623,-0.0709,-0.0293,20.11
319061378253500,610295,-3.2471,3.5641,-8.1105,-0.0513,-0.0550,-0.0354,20.12
319061389473400,610307,-3.2578,3.5880,-8.2158,-0.0012,-0.0183,-0.0599,20.15
319061401249600,610318,-3.2423,3.6024,-8.3450,0.0195,-0.0037,-0.0696,20.15
319061412375700,610329,-3.2207,3.5761,-8.4503,0.0244,0.0073,-0.0757,20.10
319061423463300,610340,-3.1872,3.5318,-8.5340,0.0147,0.0134,-0.0782,20.10
319061434572600,610352,-3.1621,3.5079,-8.5902,0.0012,0.0134,-0.0745,20.11
319061446306900,610363,-3.1406,3.5246,-8.5902,-0.0122,0.0049,-0.0696,20.11
319061457433600,610374,-3.1262,3.5474,-8.5508,-0.0232,-0.0098,-0.0623,20.13
319061468548400,610385,-3.1621,3.5713,-8.3593,-0.0354,-0.0281,-0.0550,20.13
319061479557800,610397,-3.2064,3.5844,-8.2768,-0.0562,-0.0440,-0.0562,20.11
319061491334400,610408,-3.2662,3.6048,-8.2361,-0.0513,-0.0342,-0.0599,20.12
319061502314400,610419,-3.3248,3.5821,-8.2325,-0.0391,-0.0208,-0.0660,20.12
319061513594600,610430,-3.3559,3.5833,-8.2636,-0.0281,-0.0073,-0.0672,20.12
319061525356500,610442,-3.3511,3.5880,-8.2708,-0.0147,-0.0024,-0.0635,20.12
319061536345700,610453,-3.3476,3.5844,-8.2875,-0.0086,-0.0012,-0.0599,20.12
319061547587300,610464,-3.3332,3.5653,-8.3103,-0.0024,-0.0049,-0.0586,20.12
319061558536900,610476,-3.3296,3.4828,-8.3043,-0.0073,-0.0183,-0.0501,20.13
319061570243200,610487,-3.2961,3.4792,-8.2804,-0.0122,-0.0281,-0.0440,20.12
319061581244900,610498,-3.2447,3.5198,-8.2564,-0.0110,-0.0367,-0.0367,20.12
319061592518500,610509,-3.1920,3.5641,-8.2349,-0.0061,-0.0476,-0.0342,20.08
319061604348200,610521,-3.1813,3.5916,-8.1954,-0.0012,-0.0611,-0.0391,20.08
319061615429400,610532,-3.1884,3.5916,-8.1500,0.0098,-0.0696,-0.0464,20.10
319061626544800,610543,-3.1753,3.6000,-8.1595,0.0269,-0.0684,-0.0550,20.10
319061637471600,610554,-3.1681,3.5940,-8.2253,0.0342,-0.0623,-0.0611,20.07
319061649387900,610566,-3.1944,3.6203,-8.2696,0.0538,-0.0611,-0.0757,20.09
319061660470500,610577,-3.2315,3.5785,-8.3198,0.0635,-0.0660,-0.0819,20.09
319061671450000,610588,-3.2662,3.5438,-8.3486,0.0684,-0.0733,-0.0806,20.11
319061683366500,610599,-3.3021,3.5246,-8.3653,0.0648,-0.0855,-0.0770,20.11
319061694244500,610611,-3.3631,3.5127,-8.3462,0.0599,-0.0965,-0.0721,20.11
319061705685300,610622,-3.4086,3.4624,-8.2899,0.0550,-0.1014,-0.0660,20.11
319061716498200,610633,-3.4361,3.4828,-8.2887,0.0525,-0.1100,-0.0525,20.11
319061728329100,610644,-3.5270,3.4193,-8.2050,0.0440,-0.1234,-0.0428,20.11
319061739388900,610656,-3.5809,3.4134,-8.2062,0.0574,-0.1246,-0.0391,20.10
319061750471200,610667,-3.6359,3.3428,-8.2229,0.0501,-0.1185,-0.0318,20.09
319061762260000,610678,-3.6239,3.3715,-8.1930,0.0562,-0.1075,-0.0220,20.09
319061773267100,610690,-3.5761,3.4205,-8.2158,0.0550,-0.0965,-0.0073,20.11
319061784478200,610701,-3.5019,3.4600,-8.2325,0.0586,-0.0892,0.0024,20.11
319061795472600,610712,-3.4110,3.4971,-8.2588,0.0660,-0.0794,0.0049,20.10
319061807253500,610723,-3.3308,3.5079,-8.2947,0.0635,-0.0684,0.0098,20.10
319061818385700,610735,-3.1693,3.5701,-8.4048,0.0611,-0.0550,0.0122,20.08
319061829401200,610746,-3.1190,3.5653,-8.4586,0.0562,-0.0342,-0.0061,20.11
319061840575100,610757,-3.0724,3.5366,-8.4766,0.0538,-0.0354,-0.0171,20.11
319061852199200,610768,-3.0664,3.5390,-8.4933,0.0513,-0.0415,-0.0269,20.12
319061863358400,610780,-3.0736,3.5115,-8.4730,0.0452,-0.0476,-0.0379,20.12
319061874499200,610791,-3.1262,3.4445,-8.4467,0.0354,-0.0525,-0.0489,20.10
319061885501900,610802,-3.1717,3.4134,-8.4335,0.0342,-0.0513,-0.0550,20.10
319061897448100,610813,-3.2004,3.4217,-8.4383,0.0293,-0.0476,-0.0599,20.15
319061908459400,610825,-3.2518,3.4421,-8.3474,0.0159,-0.0476,-0.0696,20.15
319061919600200,610836,-3.2901,3.4540,-8.3234,0.0171,-0.0489,-0.0721,20.09
319061931319600,610847,-3.3392,3.4445,-8.2935,0.0220,-0.0501,-0.0745,20.09
319061942312400,610859,-3.4217,3.4158,-8.2792,0.0257,-0.0513,-0.0721,20.09
319061953322500,610870,-3.4636,3.3452,-8.3186,0.0232,-0.0452,-0.0660,20.12
319061964527400,610881,-3.4780,3.3667,-8.3689,0.0220,-0.0379,-0.0562,20.12
319061976113200,610892,-3.4768,3.3858,-8.3988,0.0171,-0.0354,-0.0525,20.14
319061987343900,610904,-3.4851,3.3739,-8.3976,0.0159,-0.0391,-0.0525,20.14
319061998394600,610915,-3.5246,3.3464,-8.3510,0.0159,-0.0513,-0.0354,20.11
319062009575400,610926,-3.5163,3.3248,-8.2851,0.0000,-0.0562,-0.0147,20.08
319062021277100,610937,-3.4828,3.3894,-8.2732,-0.0024,-0.0562,0.0098,20.08
319062032165200,610949,-3.4349,3.4516,-8.2959,0.0012,-0.0501,0.0220,20.12
319062043344100,610960,-3.3631,3.4684,-8.3474,0.0073,-0.0440,0.0269,20.12
319062054373700,610971,-3.2949,3.5043,-8.3844,0.0147,-0.0367,0.0293,20.09
319062066117300,610982,-3.2315,3.5354,-8.4383,0.0171,-0.0318,0.0269,20.09
319062077219800,610994,-3.1801,3.5174,-8.4610,0.0110,-0.0281,0.0208,20.11
319062088103500,611005,-3.0867,3.5486,-8.4479,0.0012,-0.0318,0.0159,20.13
319062100087500,611016,-3.0688,3.5629,-8.3976,-0.0049,-0.0379,0.0134,20.13
319062111326900,611027,-3.0520,3.5653,-8.3545,-0.0049,-0.0415,0.0110,20.11
319062122458700,611039,-3.0173,3.5785,-8.3617,-0.0086,-0.0415,0.0086,20.11
319062133415000,611050,-2.9946,3.6156,-8.3665,-0.0037,-0.0415,0.0000,20.16
319062145235200,611061,-3.0018,3.5713,-8.3545,-0.0024,-0.0415,-0.0195,20.16
319062156173500,611073,-3.0138,3.5222,-8.3474,0.0061,-0.0403,-0.0367,20.12
319062167429500,611084,-3.0341,3.5127,-8.3964,0.0159,-0.0415,-0.0464,20.12
319062178539800,611095,-3.1561,3.4959,-8.3677,0.0208,-0.0538,-0.0648,20.12
319062190363200,611106,-3.2136,3.4863,-8.3510,0.0232,-0.0623,-0.0696,20.12
319062201407800,611118,-3.2937,3.4851,-8.3067,0.0232,-0.0745,-0.0709,20.12
319062212375100,611129,-3.3906,3.4576,-8.2205,0.0171,-0.0880,-0.0635,20.11
319062224213600,611140,-3.4636,3.4373,-8.1655,0.0134,-0.0977,-0.0513,20.11
319062235318100,611151,-3.4959,3.4457,-8.1428,0.0195,-0.1014,-0.0379,20.11
319062246427100,611163,-3.5043,3.4552,-8.1464,0.0293,-0.0965,-0.0281,20.11
319062257508700,611174,-3.4373,3.4672,-8.2959,0.0440,-0.0819,-0.0208,20.13
319062269215200,611185,-3.3643,3.4636,-8.3952,0.0623,-0.0550,-0.0183,20.09
319062280392900,611196,-3.2794,3.4564,-8.5017,0.0635,-0.0464,-0.0183,20.09
319062291465200,611208,-3.2040,3.4708,-8.5484,0.0574,-0.0464,-0.0134,20.15
319062303216200,611219,-3.1322,3.4863,-8.5496,0.0428,-0.0550,-0.0086,20.15
319062314307900,611231,-3.1298,3.5079,-8.5412,0.0220,-0.0648,-0.0086,20.11
319062325486900,611243,-3.1478,3.5342,-8.4993,0.0098,-0.0770,-0.0110,20.11
319062336565600,611254,-3.2219,3.5306,-8.4287,0.0037,-0.0867,-0.0147,20.12
319062348285600,611265,-3.4768,3.4756,-8.2863,0.0000,-0.0965,-0.0232,20.12
319062359322300,611276,-3.6168,3.4481,-8.2002,0.0037,-0.1051,-0.0147,20.12
319062370449300,611288,-3.6921,3.4146,-8.1141,0.0049,-0.1014,0.0037,20.14
319062381457800,611299,-3.6790,3.4277,-8.0686,0.0122,-0.0904,0.0257,20.14
319062393273800,611310,-3.6048,3.4708,-8.1105,0.0244,-0.0733,0.0464,20.12
319062404373500,611321,-3.4828,3.4947,-8.1894,0.0354,-0.0586,0.0550,20.12
319062415413300,611333,-3.3296,3.5031,-8.2612,0.0476,-0.0476,0.0538,20.12
319062426649800,611344,-3.2195,3.4839,-8.3318,0.0599,-0.0440,0.0476,20.12
319062438373700,611355,-3.0808,3.4217,-8.4383,0.0660,-0.0476,0.0391,20.16
319062449365400,611366,-3.0054,3.4552,-8.4538,0.0489,-0.0513,0.0391,20.14
319062460574800,611378,-2.9527,3.4911,-8.4586,0.0354,-0.0574,0.0379,20.14
319062472224600,611389,-2.9300,3.5474,-8.4586,0.0269,-0.0611,0.0269,20.12
319062483365300,611400,-2.9348,3.5521,-8.4550,0.0232,-0.0635,0.0073,20.12
319062494498000,611411,-2.9671,3.5366,-8.4646,0.0269,-0.0648,-0.0134,20.14
319062505504700,611423,-3.0257,3.5198,-8.4885,0.0318,-0.0660,-0.0305,20.14
319062517295200,611434,-3.0915,3.5043,-8.4718,0.0281,-0.0684,-0.0415,20.10
319062528545300,611445,-3.2435,3.5055,-8.3521,0.0171,-0.0770,-0.0489,20.12
319062539544800,611457,-3.3236,3.4816,-8.3175,0.0122,-0.0745,-0.0489,20.12
319062550706300,611468,-3.3751,3.4935,-8.3330,0.0171,-0.0648,-0.0476,20.13
319062562411700,611479,-3.4277,3.4887,-8.3761,0.0220,-0.0562,-0.0501,20.13
319062573449600,611490,-3.4564,3.4552,-8.3928,0.0257,-0.0525,-0.0489,20.10
319062584564300,611502,-3.4648,3.4217,-8.3677,0.0220,-0.0501,-0.0415,20.10
319062596115600,611513,-3.4361,3.4229,-8.3378,0.0159,-0.0501,-0.0257,20.10
319062607098700,611524,-3.3870,3.4385,-8.2720,0.0086,-0.0538,-0.0098,20.10
319062618338800,611535,-3.2662,3.4804,-8.2923,0.0086,-0.0501,0.0012,20.10
319062629562600,611547,-3.2112,3.5163,-8.3151,0.0147,-0.0464,-0.0061,20.16
319062641185100,611558,-3.1872,3.5079,-8.3270,0.0208,-0.0464,-0.0159,20.16
319062652263800,611569,-3.1753,3.4684,-8.3342,0.0257,-0.0464,-0.0244,20.12
319062663154300,611580,-3.1609,3.4636,-8.3414,0.0305,-0.0452,-0.0293,20.12
319062675318200,611592,-3.1226,3.4839,-8.3450,0.0318,-0.0464,-0.0293,20.14
319062686135600,611603,-3.1059,3.5234,-8.3545,0.0269,-0.0476,-0.0305,20.14
319062697196400,611614,-3.0999,3.5127,-8.3892,0.0257,-0.0464,-0.0403,20.12
319062708427200,611625,-3.1250,3.5139,-8.4383,0.0354,-0.0428,-0.0611,20.13
319062720183000,611637,-3.1753,3.4851,-8.4718,0.0318,-0.0452,-0.0672,20.13
319062731144200,611648,-3.2207,3.4732,-8.4778,0.0257,-0.0489,-0.0696,20.09
319062742270800,611659,-3.2865,3.4493,-8.4634,0.0195,-0.0525,-0.0672,20.09
319062754126100,611671,-3.3464,3.4421,-8.4191,0.0086,-0.0562,-0.0586,20.13
319062765031000,611682,-3.4122,3.4457,-8.3928,0.0012,-0.0611,-0.0489,20.13
319062776137100,611693,-3.4648,3.4158,-8.3593,-0.0024,-0.0599,-0.0428,20.12
319062787160500,611704,-3.4744,3.4014,-8.3007,0.0024,-0.0574,-0.0171,20.12
319062799069400,611716,-3.4373,3.4217,-8.2863,-0.0049,-0.0562,-0.0037,20.11
319062810164800,611727,-3.3811,3.4792,-8.2672,0.0012,-0.0550,0.0061,20.12
319062821330100,611738,-3.3081,3.4768,-8.2756,0.0000,-0.0525,0.0086,20.12
319062832613300,611749,-3.2411,3.4935,-8.2828,0.0086,-0.0452,0.0073,20.11
319062844265000,611761,-3.1621,3.5091,-8.3402,0.0110,-0.0379,0.0049,20.11
319062855108900,611772,-3.1047,3.5318,-8.3904,0.0086,-0.0354,-0.0012,20.08
319062866531400,611783,-3.0580,3.5330,-8.4227,0.0073,-0.0342,-0.0098,20.08
319062877548300,611794,-3.0197,3.5892,-8.4849,0.0098,-0.0403,-0.0232,20.12
319062889156800,611806,-3.0508,3.5749,-8.4503,-0.0012,-0.0489,-0.0318,20.14
319062900385500,611817,-3.0999,3.5689,-8.4180,0.0000,-0.0525,-0.0391,20.14
319062911599800,611828,-3.1490,3.5545,-8.3904,-0.0012,-0.0538,-0.0440,20.12
319062922621500,611840,-3.2195,3.5234,-8.3545,-0.0061,-0.0586,-0.0476,20.12
319062934411800,611851,-3.3057,3.4863,-8.3330,-0.0024,-0.0623,-0.0476,20.11
319062945579900,611862,-3.3846,3.4576,-8.3258,0.0000,-0.0660,-0.0464,20.11
319062956578100,611873,-3.4349,3.4481,-8.2983,0.0061,-0.0709,-0.0403,20.11
319062968159100,611885,-3.4672,3.4253,-8.1918,0.0049,-0.0757,-0.0183,20.11
319062979526700,611896,-3.4253,3.4552,-8.1703,0.0049,-0.0696,-0.0061,20.11
319062990519600,611907,-3.3631,3.5079,-8.2146,0.0134,-0.0611,0.0012,20.11
319063001464700,611918,-3.3069,3.5079,-8.2768,0.0183,-0.0538,0.0012,20.11
319063013286600,611930,-3.2387,3.4887,-8.3234,0.0232,-0.0489,-0.0012,20.15
319063024401500,611941,-3.1741,3.4971,-8.3976,0.0293,-0.0476,-0.0024,20.15
319063035507900,611952,-3.1358,3.5055,-8.4814,0.0257,-0.0476,-0.0024,20.14
319063046356900,611963,-3.1178,3.5306,-8.5196,0.0171,-0.0501,-0.0037,20.14
319063058254300,611975,-3.1011,3.5797,-8.4491,-0.0024,-0.0696,-0.0086,20.13
319063069248500,611986,-3.1298,3.5833,-8.3641,-0.0061,-0.0782,-0.0147,20.15
319063080123100,611997,-3.1729,3.5593,-8.2840,-0.0098,-0.0831,-0.0183,20.15
319063092100100,612008,-3.2124,3.5498,-8.2337,-0.0110,-0.0794,-0.0183,20.11
319063103136700,612020,-3.2183,3.5689,-8.2397,-0.0049,-0.0709,-0.0195,20.11
319063114234100,612031,-3.2255,3.5701,-8.2696,0.0049,-0.0635,-0.0257,20.12
319063125378400,612042,-3.2375,3.5462,-8.3222,0.0147,-0.0538,-0.0342,20.12
319063137163600,612054,-3.2542,3.4899,-8.4275,0.0183,-0.0464,-0.0440,20.15
319063148283200,612065,-3.3260,3.4325,-8.4658,0.0147,-0.0367,-0.0464,20.11
319063159358900,612076,-3.3464,3.4229,-8.4849,0.0061,-0.0379,-0.0391,20.11
319063171147600,612087,-3.3619,3.4134,-8.4909,-0.0049,-0.0415,-0.0305,20.13
319063182144500,612099,-3.3906,3.4002,-8.4503,-0.0195,-0.0501,-0.0195,20.13
319063193139100,612110,-3.4074,3.4241,-8.4048,-0.0318,-0.0574,-0.0061,20.09
319063204601300,612121,-3.4170,3.4564,-8.3414,-0.0415,-0.0623,0.0061,20.09
319063216308300,612132,-3.4265,3.4875,-8.2899,-0.0452,-0.0623,0.0147,20.09
319063227464900,612144,-3.4038,3.5462,-8.2253,-0.0489,-0.0586,0.0244,20.09
319063238772200,612155,-3.3583,3.5498,-8.2361,-0.0428,-0.0403,0.0305,20.12
319063249536100,612166,-3.3188,3.5821,-8.2600,-0.0342,-0.0269,0.0330,20.14
319063261342100,612177,-3.2590,3.5892,-8.3067,-0.0269,-0.0195,0.0330,20.14
319063272466200,612189,-3.1872,3.6156,-8.3175,-0.0244,-0.0159,0.0318,20.15
319063283633500,612200,-3.1190,3.6419,-8.3055,-0.0281,-0.0183,0.0367,20.15
319063295230000,612211,-3.0305,3.6694,-8.2959,-0.0403,-0.0232,0.0428,20.17
319063306437400,612222,-2.9515,3.7184,-8.2851,-0.0415,-0.0269,0.0428,20.17
319063317458700,612234,-2.8259,3.7424,-8.3701,-0.0367,-0.0232,0.0086,20.15
319063328764800,612245,-2.8008,3.7448,-8.4383,-0.0171,-0.0049,-0.0147,20.14
319063340353500,612256,-2.7781,3.7484,-8.4491,-0.0159,-0.0086,-0.0379,20.14
319063351286600,612268,-2.8092,3.7388,-8.4275,-0.0208,-0.0195,-0.0574,20.15
319063362561000,612279,-2.8893,3.7232,-8.3510,-0.0244,-0.0330,-0.0709,20.15
319063374236400,612290,-2.9587,3.7005,-8.2887,-0.0257,-0.0428,-0.0745,20.17
319063385282100,612301,-3.0353,3.7017,-8.2469,-0.0232,-0.0476,-0.0721,20.17
319063396550200,612313,-3.0963,3.7352,-8.2552,-0.0208,-0.0489,-0.0709,20.10
319063407690900,612324,-3.2602,3.6802,-8.3306,-0.0061,-0.0501,-0.0831,20.10
319063419322900,612335,-3.3595,3.6239,-8.3330,-0.0061,-0.0525,-0.0843,20.12
319063430425100,612346,-3.4301,3.5952,-8.3043,-0.0073,-0.0525,-0.0733,20.17
319063441631200,612358,-3.4684,3.5916,-8.2648,-0.0086,-0.0538,-0.0574,20.17
319063453315700,612369,-3.4576,3.6060,-8.2217,-0.0122,-0.0550,-0.0379,20.16
319063464337600,612381,-3.4038,3.6263,-8.1930,-0.0098,-0.0525,-0.0147,20.16
319063475547500,612392,-3.3141,3.6969,-8.2170,-0.0061,-0.0501,0.0037,20.15
319063486651600,612404,-3.2136,3.7543,-8.2804,-0.0024,-0.0489,0.0098,20.15
319063498331700,612415,-3.0999,3.7496,-8.3234,0.0110,-0.0476,0.0024,20.18
319063509401900,612426,-3.0664,3.7292,-8.3450,0.0122,-0.0464,0.0000,20.17
319063520505500,612438,-3.0544,3.7412,-8.3342,0.0098,-0.0525,0.0000,20.17
319063531496600,612448,-3.0604,3.7376,-8.2923,0.0024,-0.0648,-0.0012,20.11
319063543198400,612459,-3.0592,3.7280,-8.2229,0.0037,-0.0757,-0.0024,20.11
319063554394700,612470,-3.0724,3.7017,-8.1607,0.0061,-0.0843,-0.0024,20.15
319063565453500,612482,-3.0628,3.7304,-8.1248,0.0110,-0.0867,-0.0037,20.15
319063576449100,612493,-3.0520,3.7579,-8.1882,0.0220,-0.0819,-0.0110,20.11
319063588213100,612504,-3.0269,3.7400,-8.2792,0.0525,-0.0721,-0.0391,20.12
319063599224400,612515,-3.0520,3.7137,-8.3175,0.0599,-0.0709,-0.0525,20.12
319063610519900,612528,-3.0855,3.6945,-8.3474,0.0648,-0.0709,-0.0599,20.12
319063622271200,612539,-3.1214,3.6694,-8.3617,0.0623,-0.0733,-0.0599,20.12
319063633122000,612550,-3.1394,3.6730,-8.3545,0.0525,-0.0794,-0.0562,20.09
319063644041200,612561,-3.1502,3.6706,-8.3354,0.0403,-0.0843,-0.0513,20.09
319063655242200,612573,-3.1956,3.6826,-8.3258,0.0379,-0.0867,-0.0501,20.13
319063667297800,612584,-3.2506,3.6132,-8.3091,0.0367,-0.0855,-0.0513,20.13
319063678445900,612595,-3.2602,3.6263,-8.3007,0.0379,-0.0843,-0.0440,20.12
319063689404400,612606,-3.2590,3.6179,-8.2923,0.0354,-0.0843,-0.0403,20.12
319063700527200,612618,-3.2662,3.6191,-8.2732,0.0342,-0.0831,-0.0354,20.12
319063712344900,612629,-3.2626,3.6347,-8.2792,0.0342,-0.0806,-0.0342,20.16
319063723440600,612640,-3.2399,3.6455,-8.2756,0.0367,-0.0733,-0.0354,20.16
319063734358500,612652,-3.2148,3.6455,-8.3115,0.0440,-0.0648,-0.0367,20.15
319063746416000,612663,-3.2004,3.6491,-8.3426,0.0452,-0.0611,-0.0379,20.15
319063757521300,612674,-3.1657,3.6359,-8.3198,0.0403,-0.0696,-0.0342,20.17
319063768549100,612685,-3.1681,3.6347,-8.2899,0.0281,-0.0745,-0.0318,20.13
319063779567700,612697,-3.1609,3.6287,-8.2600,0.0244,-0.0757,-0.0330,20.13
319063791356400,612708,-3.1466,3.6455,-8.2720,0.0281,-0.0733,-0.0367,20.12
319063802435400,612719,-3.1442,3.6598,-8.3079,0.0379,-0.0684,-0.0440,20.12
319063813490100,612730,-3.1621,3.6598,-8.3282,0.0452,-0.0660,-0.0525,20.16
319063825372600,612742,-3.1741,3.6491,-8.3390,0.0464,-0.0648,-0.0586,20.16
319063836415800,612753,-3.1860,3.6526,-8.3366,0.0403,-0.0648,-0.0586,20.15
319063847424600,612764,-3.2315,3.6275,-8.3378,0.0391,-0.0648,-0.0599,20.11
319063858716400,612775,-3.2483,3.5880,-8.3222,0.0342,-0.0684,-0.0574,20.11
319063870324400,612787,-3.2578,3.6120,-8.2780,0.0281,-0.0733,-0.0513,20.13
319063881387200,612798,-3.2686,3.6012,-8.2588,0.0269,-0.0745,-0.0464,20.13
319063892480500,612809,-3.2818,3.5856,-8.2708,0.0305,-0.0696,-0.0464,20.17
319063904351200,612820,-3.2877,3.5892,-8.3163,0.0391,-0.0611,-0.0476,20.17
319063915354800,612832,-3.2698,3.5677,-8.3342,0.0379,-0.0550,-0.0464,20.14
319063926598700,612843,-3.2578,3.5689,-8.3976,0.0367,-0.0525,-0.0415,20.14
319063937596700,612854,-3.2148,3.5773,-8.4335,0.0342,-0.0550,-0.0379,20.13
319063949319900,612866,-3.2160,3.5880,-8.4383,0.0293,-0.0562,-0.0391,20.16
319063960396900,612877,-3.2279,3.5928,-8.4108,0.0171,-0.0648,-0.0354,20.16
319063971503700,612888,-3.2506,3.6084,-8.3414,0.0086,-0.0745,-0.0305,20.12
319063983244000,612899,-3.2626,3.6144,-8.2624,0.0024,-0.0831,-0.0244,20.12
319063994353200,612911,-3.2734,3.6191,-8.1906,0.0012,-0.0867,-0.0195,20.12
319064005559800,612922,-3.2806,3.6084,-8.1595,0.0061,-0.0843,-0.0159,20.12
319064016496100,612933,-3.2518,3.6299,-8.2217,0.0134,-0.0757,-0.0134,20.15
319064028369500,612944,-3.2183,3.6347,-8.2935,0.0354,-0.0574,-0.0208,20.13
319064039307600,612956,-3.1920,3.6311,-8.3593,0.0428,-0.0513,-0.0342,20.13
319064050432100,612967,-3.1860,3.6060,-8.4024,0.0464,-0.0476,-0.0440,20.13
319064061299800,612978,-3.1860,3.5737,-8.4371,0.0428,-0.0452,-0.0476,20.13
319064073110800,612989,-3.1980,3.5749,-8.4658,0.0367,-0.0476,-0.0464,20.12
319064084480400,613001,-3.2195,3.5605,-8.4538,0.0269,-0.0550,-0.0415,20.12
319064095525200,613012,-3.2279,3.5641,-8.3821,0.0159,-0.0660,-0.0354,20.16
319064107288500,613023,-3.2315,3.6024,-8.2684,0.0098,-0.0721,-0.0281,20.16
319064118245100,613035,-3.2435,3.5940,-8.2600,0.0098,-0.0696,-0.0305,20.12
319064129216000,613046,-3.2698,3.6191,-8.2684,0.0195,-0.0635,-0.0367,20.14
319064140358500,613057,-3.2806,3.5916,-8.2923,0.0244,-0.0538,-0.0428,20.14
319064152191000,613068,-3.2770,3.5844,-8.3258,0.0269,-0.0476,-0.0415,20.14
319064163370400,613080,-3.2662,3.5821,-8.3474,0.0257,-0.0452,-0.0379,20.14
319064174345900,613091,-3.2459,3.5844,-8.3450,0.0232,-0.0452,-0.0354,20.12
319064185489300,613102,-3.2399,3.5785,-8.3366,0.0183,-0.0513,-0.0305,20.12
319064197323500,613113,-3.2064,3.5880,-8.2804,0.0098,-0.0635,-0.0171,20.12
319064208560600,613125,-3.1860,3.6072,-8.2840,0.0037,-0.0635,-0.0159,20.12
319064219352200,613136,-3.1585,3.6431,-8.2935,0.0110,-0.0623,-0.0232,20.12
319064231218400,613147,-3.1777,3.6646,-8.3067,0.0159,-0.0635,-0.0318,20.14
319064242288000,613158,-3.1908,3.6371,-8.3055,0.0195,-0.0586,-0.0428,20.14
319064253348600,613170,-3.1741,3.6443,-8.2947,0.0281,-0.0538,-0.0489,20.12
319064264324000,613181,-3.2016,3.6538,-8.2995,0.0257,-0.0501,-0.0476,20.12
319064276313600,613192,-3.1968,3.6694,-8.2935,0.0342,-0.0489,-0.0501,20.13
319064287367600,613203,-3.1860,3.6383,-8.3390,0.0440,-0.0513,-0.0513,20.12
319064298292600,613215,-3.2016,3.6239,-8.3521,0.0415,-0.0550,-0.0489,20.12
319064309588700,613226,-3.2016,3.6000,-8.3510,0.0391,-0.0586,-0.0464,20.11
319064321239200,613237,-3.2088,3.5988,-8.3545,0.0354,-0.0586,-0.0452,20.11
319064332218100,613249,-3.2291,3.5533,-8.3557,0.0330,-0.0611,-0.0464,20.11
319064343483300,613260,-3.2339,3.5474,-8.3725,0.0330,-0.0599,-0.0440,20.11
319064355212300,613271,-3.2506,3.5509,-8.3952,0.0318,-0.0623,-0.0428,20.14
319064366376100,613282,-3.2638,3.5354,-8.3366,0.0208,-0.0672,-0.0403,20.14
319064377381900,613294,-3.2865,3.5581,-8.3163,0.0061,-0.0733,-0.0281,20.15
319064388515700,613305,-3.2973,3.5904,-8.2851,0.0049,-0.0757,-0.0220,20.11
319064400274200,613317,-3.2937,3.6096,-8.2672,0.0037,-0.0794,-0.0159,20.11
319064411234900,613328,-3.3176,3.6287,-8.2385,0.0110,-0.0806,-0.0110,20.12
319064422373500,613340,-3.2973,3.6132,-8.2301,0.0110,-0.0794,-0.0086,20.12
319064434306800,613351,-3.2830,3.6371,-8.2481,0.0195,-0.0721,-0.0061,20.12
319064445377400,613362,-3.2375,3.6538,-8.2756,0.0269,-0.0660,-0.0086,20.12
319064456430300,613373,-3.1789,3.6191,-8.3198,0.0269,-0.0611,-0.0122,20.12
319064467394800,613385,-3.1478,3.6072,-8.3043,0.0330,-0.0672,-0.0220,20.13
319064479320200,613396,-3.1310,3.5868,-8.3103,0.0342,-0.0721,-0.0269,20.13
319064490387200,613407,-3.1286,3.5892,-8.3127,0.0342,-0.0745,-0.0330,20.15
319064501426400,613419,-3.1525,3.5749,-8.3091,0.0293,-0.0770,-0.0354,20.15
319064513278600,613430,-3.1633,3.5916,-8.2911,0.0293,-0.0806,-0.0367,20.13
319064524417500,613441,-3.1801,3.6383,-8.3019,0.0318,-0.0831,-0.0403,20.13
319064535405000,613452,-3.2112,3.6443,-8.2851,0.0318,-0.0855,-0.0464,20.10
319064546573900,613464,-3.2925,3.5569,-8.3019,0.0342,-0.0831,-0.0574,20.10
319064558420000,613475,-3.3117,3.5330,-8.3079,0.0379,-0.0794,-0.0586,20.14
319064569347100,613486,-3.3212,3.5486,-8.3079,0.0391,-0.0757,-0.0562,20.11
319064580622000,613497,-3.3081,3.5509,-8.2959,0.0342,-0.0721,-0.0525,20.11
319064592226900,613509,-3.3105,3.5689,-8.3067,0.0354,-0.0696,-0.0501,20.14
319064603356300,613520,-3.3141,3.5557,-8.3127,0.0354,-0.0684,-0.0489,20.14
319064614399600,613531,-3.3165,3.5294,-8.3234,0.0305,-0.0648,-0.0476,20.13
319064625652300,613542,-3.3009,3.5438,-8.3557,0.0269,-0.0623,-0.0415,20.13
319064637399100,613554,-3.2782,3.5701,-8.3378,0.0086,-0.0562,-0.0367,20.13
319064648363300,613565,-3.2830,3.5880,-8.3414,0.0037,-0.0550,-0.0330,20.11
319064659607200,613576,-3.2698,3.5916,-8.3306,0.0086,-0.0550,-0.0293,20.11
319064670315600,613587,-3.2674,3.6120,-8.3378,0.0330,-0.0586,-0.0269,20.12
319064682096600,613599,-3.3416,3.5725,-8.3438,0.0367,-0.0562,-0.0367,20.12
319064693085600,613610,-3.2818,3.5234,-8.5771,0.0024,-0.0562,-0.0440,20.12
319064704389200,613621,-3.3823,3.4648,-8.4108,-0.0684,-0.0770,-0.0342,20.12
319064716255800,613633,-3.2435,3.5892,-8.3270,-0.0244,-0.0880,0.0000,20.15
319064727344500,613644,-3.2315,3.5737,-8.2648,-0.0330,-0.1087,-0.0159,20.13
319064738572800,613655,-3.2172,3.5270,-8.1858,-0.0501,-0.1258,-0.0086,20.13
319064749537500,613666,-3.2267,3.6024,-8.2062,-0.0648,-0.1283,-0.0024,20.12
319064761407400,613678,-3.2530,3.6072,-8.1787,-0.0538,-0.1283,-0.0122,20.12
319064772365900,613689,-4.8790,3.5414,-8.2636,-0.0440,-0.1210,-0.0269,20.12
319064783499700,613700,-3.0855,2.7266,-7.2694,-0.2615,-0.0330,-0.0220,20.12
319064795129500,613711,-2.6979,3.7065,-8.2505,-0.0452,0.0330,0.1454,20.11
319064806310700,613723,-2.9731,4.1216,-8.7015,0.3848,-0.0843,0.1527,20.11
319064817585400,613734,-3.5844,3.0820,-8.1392,0.1613,-0.2761,-0.1772,20.12
319064828627000,613745,-3.7184,3.0736,-7.9358,0.0305,-0.1393,-0.1100,20.11
319064840395400,613756,-3.5665,3.4816,-8.1703,-0.0244,-0.0257,-0.0110,20.11
319064851419200,613768,-3.5641,3.7615,-8.3533,-0.0208,-0.0073,0.0073,20.13
319064862585600,613779,-3.5629,3.6981,-8.2732,0.0318,-0.0476,-0.0171,20.13
319064874126100,613790,-3.4887,3.5940,-8.2540,0.0696,-0.0757,-0.0305,20.13
319064885276800,613801,-3.4265,3.5270,-8.2887,0.0794,-0.0648,-0.0354,20.13
319064896297100,613813,-3.3081,3.4983,-8.4969,0.0440,0.2859,-0.0086,20.12
319064907603500,613824,-3.1681,3.6479,-8.5783,-0.0012,-0.0012,0.0000,20.17
319064919226200,613835,-3.1047,3.6239,-8.5077,-0.0305,-0.0415,-0.0086,20.17
319064930475000,613847,-3.1370,3.5474,-8.3378,-0.0476,-0.0806,-0.0122,20.10
319064941477500,613858,-3.1860,3.5378,-8.2301,-0.0574,-0.0953,-0.0086,20.10
319064952505500,613869,-3.2339,3.5545,-8.1691,-0.0611,-0.0892,-0.0073,20.13
319064964364100,613880,-3.2578,3.5749,-8.1344,-0.0623,-0.0757,-0.0098,20.13
319064975441800,613892,-3.2722,3.6215,-8.1284,-0.0599,-0.0648,-0.0134,20.11
319064986510100,613903,-3.3356,3.6838,-8.1870,-0.0464,-0.0525,-0.0428,20.11
319064998308100,613914,-3.3703,3.6239,-8.2253,0.0134,-0.0379,-0.0611,20.15
319065009449600,613925,-3.3715,3.5916,-8.3354,0.0318,-0.0183,-0.0672,20.15
319065020341500,613937,-3.3511,3.5761,-8.4191,0.0244,-0.0061,-0.0611,20.15
319065032123200,613948,-3.2949,3.6084,-8.4359,0.0012,-0.0073,-0.0501,20.14
319065043454400,613959,-3.2435,3.6467,-8.4191,-0.0220,-0.0171,-0.0379,20.14
319065054444300,613971,-3.2076,3.6826,-8.4072,-0.0342,-0.0293,-0.0342,20.13
319065065449500,613983,-3.2172,3.6897,-8.2911,-0.0305,-0.0391,-0.0367,20.13
319065077212200,613994,-3.2112,3.6814,-8.2636,-0.0305,-0.0415,-0.0367,20.16
319065088471100,614005,-3.2327,3.7029,-8.2277,-0.0293,-0.0428,-0.0391,20.12
319065099400300,614017,-3.2626,3.6861,-8.1631,-0.0305,-0.0464,-0.0464,20.12
319065111250300,614028,-3.2841,3.6969,-8.1296,-0.0257,-0.0464,-0.0525,20.14
319065122400500,614039,-3.3165,3.6873,-8.1200,-0.0073,-0.0403,-0.0574,20.14
319065133538100,614050,-3.3416,3.6407,-8.1416,0.0086,-0.0318,-0.0623,20.12
319065145257400,614062,-3.3368,3.6203,-8.2002,0.0220,-0.0232,-0.0599,20.12
319065156368600,614073,-3.2746,3.6610,-8.3486,0.0257,-0.0208,-0.0538,20.15
319065167450200,614084,-3.2279,3.6455,-8.4024,0.0208,-0.0220,-0.0525,20.16
319065178503300,614095,-3.2100,3.6562,-8.4108,0.0159,-0.0281,-0.0525,20.16
319065190448700,614107,-3.2076,3.6610,-8.3952,0.0098,-0.0391,-0.0489,20.13
319065201416500,614118,-3.2219,3.6622,-8.3665,-0.0012,-0.0525,-0.0452,20.13
319065212361900,614129,-3.2315,3.6479,-8.3115,-0.0159,-0.0648,-0.0415,20.16
319065224266600,614140,-3.2542,3.6598,-8.2457,-0.0281,-0.0733,-0.0379,20.16
319065235376900,614152,-3.2530,3.6694,-8.2158,-0.0354,-0.0745,-0.0330,20.09
319065246455900,614163,-3.2877,3.6694,-8.2146,-0.0330,-0.0745,-0.0330,20.09
319065257439900,614174,-3.2985,3.6682,-8.2289,-0.0122,-0.0770,-0.0342,20.14
319065269137200,614185,-3.3428,3.6766,-8.2528,0.0000,-0.0782,-0.0342,20.12
319065280255400,614197,-3.3631,3.6383,-8.2505,0.0000,-0.0819,-0.0330,20.12
319065291371600,614208,-3.3272,3.6598,-8.2457,-0.0098,-0.0819,-0.0244,20.14
319065302447800,614219,-3.3224,3.7292,-8.2816,-0.0122,-0.0867,-0.0110,20.14
319065314374500,614231,-3.2686,3.7543,-8.2624,-0.0208,-0.0941,-0.0098,20.13
319065325474500,614242,-3.2207,3.7914,-8.2110,-0.0195,-0.1063,-0.0110,20.13
319065336445700,614253,-3.1561,3.7926,-8.0662,-0.0037,-0.1051,-0.0183,20.14
319065348084000,614264,-3.1131,3.8548,-8.1057,0.0073,-0.0904,-0.0208,20.15
319065359118500,614276,-3.0843,3.8800,-8.2074,0.0086,-0.0806,-0.0318,20.15
319065370364600,614287,-3.0497,3.8943,-8.2469,0.0318,-0.0782,-0.0513,20.16
319065381285900,614298,-3.0736,3.8620,-8.2708,0.0464,-0.0831,-0.0721,20.16
319065393290500,614309,-3.0951,3.7998,-8.2588,0.0464,-0.0904,-0.0843,20.16
319065404449100,614321,-3.0843,3.7926,-8.2146,0.0415,-0.0990,-0.0916,20.16
319065415451300,614332,-3.0784,3.8046,-8.1332,0.0403,-0.1051,-0.0953,20.18
319065426578800,614343,-3.1286,3.7926,-8.0925,0.0635,-0.1173,-0.1112,20.14
319065438417400,614354,-3.1394,3.8034,-8.0877,0.0831,-0.1148,-0.1197,20.14
319065449394200,614366,-3.1454,3.8237,-8.1021,0.1038,-0.1112,-0.1283,20.14
319065460667400,614377,-3.1609,3.8142,-8.1380,0.1210,-0.1051,-0.1442,20.14
319065472275600,614388,-3.2028,3.7902,-8.1739,0.1454,-0.0965,-0.1637,20.13
319065483386400,614400,-3.2638,3.7220,-8.2493,0.1686,-0.0941,-0.1808,20.13
319065494466600,614411,-3.3607,3.6275,-8.3210,0.1845,-0.0941,-0.1881,20.14
319065505385000,614422,-3.6012,3.4397,-8.4526,0.1894,-0.1002,-0.1906,20.14
319065517171300,614433,-3.7448,3.3153,-8.4550,0.1686,-0.1210,-0.1796,20.12
319065528558700,614445,-3.8429,3.2471,-8.4168,0.1527,-0.1307,-0.1600,20.12
319065539662900,614456,-3.9278,3.2172,-8.3856,0.1307,-0.1466,-0.1283,20.12
319065551297000,614467,-3.9924,3.2088,-8.2911,0.0990,-0.1613,-0.0953,20.18
319065562414400,614478,-4.0702,3.1908,-8.2026,0.0696,-0.1698,-0.0623,20.18
319065573283400,614490,-4.1468,3.1813,-8.1416,0.0562,-0.1649,-0.0330,20.15
319065585303200,614501,-4.1886,3.1633,-8.1177,0.0538,-0.1515,-0.0049,20.15
319065596198100,614513,-4.0475,3.2435,-8.1093,0.0513,-0.1332,0.0562,20.13
319065607357700,614524,-3.8704,3.3775,-8.1320,0.0440,-0.0929,0.0806,20.18
319065618217100,614536,-3.7077,3.4780,-8.2050,0.0489,-0.0745,0.0941,20.18
319065630136400,614547,-3.5797,3.5246,-8.3055,0.0562,-0.0599,0.0929,20.11
319065641270600,614558,-3.4493,3.4995,-8.3641,0.0660,-0.0513,0.0855,20.11
319065652326900,614569,-3.3188,3.4792,-8.4275,0.0757,-0.0428,0.0831,20.11
319065663594900,614581,-3.2004,3.4911,-8.4933,0.0684,-0.0379,0.0794,20.11
319065675352200,614592,-3.0652,3.5366,-8.5101,0.0489,-0.0367,0.0721,20.09
319065686389100,614603,-2.9133,3.5689,-8.5137,0.0281,-0.0415,0.0232,20.09
319065697389600,614615,-2.9252,3.5210,-8.4897,0.0134,-0.0464,-0.0086,20.14
319065708200200,614626,-2.9982,3.4732,-8.4598,0.0122,-0.0513,-0.0379,20.12
319065720029700,614637,-3.0963,3.4289,-8.3797,-0.0012,-0.0586,-0.0586,20.12
319065731178100,614648,-3.2387,3.4265,-8.2540,-0.0147,-0.0635,-0.0733,20.14
319065742537500,614660,-3.3500,3.4397,-8.1703,-0.0171,-0.0586,-0.0806,20.14
319065754304100,614671,-3.4540,3.4481,-8.1512,-0.0122,-0.0489,-0.0880,20.14
319065765428800,614682,-3.5270,3.4337,-8.2481,0.0012,-0.0354,-0.0965,20.14
319065776500100,614693,-3.6239,3.4361,-8.3593,0.0293,-0.0073,-0.1075,20.11
319065788290300,614705,-3.6826,3.3894,-8.4263,0.0232,-0.0012,-0.1026,20.16
319065799342200,614716,-3.6802,3.3679,-8.4275,0.0073,0.0000,-0.0819,20.16
319065810456600,614727,-3.6407,3.4253,-8.4431,-0.0098,-0.0073,-0.0550,20.14
319065821517700,614738,-3.6108,3.4828,-8.4012,-0.0244,-0.0195,-0.0391,20.14
319065833271800,614750,-3.5761,3.4768,-8.3067,-0.0379,-0.0305,-0.0305,20.11
319065844337900,614761,-3.5414,3.4899,-8.2636,-0.0403,-0.0342,-0.0244,20.11
319065855475200,614772,-3.4971,3.5210,-8.1990,-0.0415,-0.0354,-0.0220,20.13
319065866527300,614784,-3.4505,3.5163,-8.2002,-0.0257,-0.0269,-0.0220,20.14
319065878360600,614795,-3.4289,3.5258,-8.2229,-0.0098,-0.0220,-0.0257,20.14
319065889475600,614806,-3.4277,3.5210,-8.2576,0.0012,-0.0171,-0.0293,20.17
319065900387400,614817,-3.4098,3.5174,-8.2648,0.0049,-0.0134,-0.0281,20.17
319065912104000,614829,-3.3918,3.5151,-8.3151,0.0000,-0.0147,-0.0220,20.12
319065923361100,614840,-3.3703,3.5270,-8.3163,-0.0012,-0.0232,-0.0171,20.12
319065934476600,614851,-3.3488,3.5342,-8.3270,-0.0012,-0.0318,-0.0134,20.16
319065945579300,614862,-3.2937,3.5402,-8.3306,-0.0049,-0.0415,-0.0110,20.16
319065957299800,614874,-3.2614,3.5988,-8.3258,-0.0183,-0.0513,-0.0061,20.18
319065968614600,614885,-3.2447,3.6407,-8.3007,-0.0183,-0.0550,-0.0122,20.14
319065979549200,614896,-3.2602,3.6431,-8.2361,-0.0122,-0.0586,-0.0269,20.14
319065991162400,614907,-3.3129,3.6072,-8.2110,-0.0049,-0.0611,-0.0403,20.18
319066002421300,614919,-3.3595,3.5809,-8.1882,0.0098,-0.0623,-0.0464,20.18
319066013451900,614930,-3.4325,3.5474,-8.2289,0.0098,-0.0623,-0.0464,20.11
319066024727100,614941,-3.5151,3.4935,-8.2301,0.0134,-0.0648,-0.0440,20.11
319066036300300,614952,-3.5833,3.4744,-8.2086,0.0159,-0.0672,-0.0293,20.15
319066047532300,614964,-3.5880,3.4947,-8.2110,0.0159,-0.0660,-0.0220,20.11
319066058621500,614975,-3.5689,3.4899,-8.2181,0.0098,-0.0648,-0.0159,20.11
319066069473600,614986,-3.5629,3.5186,-8.2181,0.0110,-0.0660,-0.0086,20.13
319066081326800,614998,-3.5318,3.5270,-8.2325,0.0098,-0.0648,-0.0037,20.13
319066092355000,615009,-3.4959,3.5545,-8.2552,0.0110,-0.0623,0.0037,20.12
319066103599600,615020,-3.4612,3.5856,-8.2756,0.0122,-0.0599,0.0086,20.12
319066114540400,615031,-3.4289,3.5833,-8.2911,0.0061,-0.0562,0.0086,20.15
319066126421000,615043,-3.3739,3.5725,-8.3498,0.0110,-0.0452,0.0012,20.15
319066137510500,615054,-3.3547,3.5617,-8.3533,0.0049,-0.0428,-0.0061,20.13
319066148480400,615065,-3.3356,3.5545,-8.3246,-0.0037,-0.0452,-0.0098,20.11
319066160313800,615076,-3.3153,3.5713,-8.2684,-0.0098,-0.0489,-0.0086,20.11
319066171197700,615088,-3.3021,3.6156,-8.2481,-0.0147,-0.0501,-0.0086,20.18
319066182321500,615099,-3.3284,3.6371,-8.2421,-0.0171,-0.0501,-0.0134,20.18
319066193429800,615110,-3.3631,3.5821,-8.2397,-0.0159,-0.0489,-0.0208,20.14
319066205464500,615121,-3.3823,3.5761,-8.2253,-0.0049,-0.0440,-0.0257,20.14
319066216364500,615133,-3.3894,3.5713,-8.2445,-0.0012,-0.0293,-0.0330,20.14
319066227483200,615144,-3.4098,3.5701,-8.2469,-0.0012,-0.0281,-0.0354,20.11
319066239283300,615155,-3.3918,3.5725,-8.2205,0.0037,-0.0281,-0.0342,20.11
319066250397600,615166,-3.3739,3.6012,-8.2098,0.0049,-0.0293,-0.0330,20.14
319066261287300,615178,-3.3595,3.6060,-8.2014,0.0012,-0.0305,-0.0342,20.14
319066272513700,615189,-3.3272,3.6120,-8.2086,0.0024,-0.0281,-0.0330,20.11
319066284356400,615200,-3.3176,3.6359,-8.2516,0.0098,-0.0220,-0.0342,20.11
319066295388700,615212,-3.2901,3.6036,-8.3342,0.0159,-0.0171,-0.0391,20.12
319066306557300,615223,-3.2459,3.6383,-8.3498,0.0195,-0.0232,-0.0428,20.14
319066317509700,615234,-3.2243,3.6395,-8.3378,0.0110,-0.0318,-0.0476,20.14
319066329405100,615245,-3.2614,3.6191,-8.3175,0.0086,-0.0379,-0.0525,20.13
319066340427300,615257,-3.3093,3.5665,-8.2971,0.0098,-0.0403,-0.0599,20.13
319066351524700,615268,-3.3404,3.5390,-8.3079,0.0134,-0.0391,-0.0611,20.15
319066363145500,615279,-3.3715,3.5498,-8.3019,0.0134,-0.0391,-0.0550,20.15
319066374241700,615290,-3.4086,3.5833,-8.2756,0.0061,-0.0452,-0.0501,20.10
319066385313800,615302,-3.4839,3.5521,-8.1835,-0.0012,-0.0550,-0.0476,20.10
319066396329400,615313,-3.4995,3.5533,-8.1775,0.0024,-0.0635,-0.0318,20.14
319066408187300,615324,-3.4935,3.5809,-8.1942,0.0073,-0.0574,-0.0257,20.15
319066419275700,615335,-3.4516,3.5904,-8.2301,0.0147,-0.0501,-0.0220,20.15
319066430498700,615347,-3.4229,3.6168,-8.2660,0.0269,-0.0440,-0.0195,20.15
319066441484100,615358,-3.3870,3.6036,-8.3103,0.0269,-0.0440,-0.0208,20.15
319066453362400,615369,-3.3667,3.5701,-8.3390,0.0183,-0.0452,-0.0195,20.14
319066464495800,615380,-3.3224,3.5892,-8.3605,0.0134,-0.0464,-0.0147,20.14
319066475542200,615392,-3.2614,3.6251,-8.3569,0.0122,-0.0489,-0.0086,20.11
319066487277500,615403,-3.2782,3.6335,-8.3163,0.0061,-0.0684,-0.0122,20.12
319066498464100,615414,-3.3117,3.6084,-8.2792,0.0086,-0.0782,-0.0171,20.12
319066509396400,615426,-3.3930,3.5665,-8.2325,0.0061,-0.0831,-0.0195,20.13
319066520386100,615437,-3.4576,3.5402,-8.1942,0.0037,-0.0843,-0.0147,20.13
319066532290900,615448,-3.4768,3.5486,-8.1703,0.0012,-0.0806,-0.0061,20.12
319066543438200,615459,-3.4648,3.5880,-8.1607,0.0024,-0.0757,0.0000,20.12
319066554356300,615471,-3.4469,3.6060,-8.1523,0.0073,-0.0733,0.0000,20.15
319066565457700,615482,-3.3954,3.5904,-8.1619,0.0134,-0.0623,-0.0086,20.15
319066577199300,615493,-3.3595,3.5916,-8.2229,0.0305,-0.0538,-0.0086,20.16
319066588528200,615504,-3.3153,3.6096,-8.2959,0.0293,-0.0464,-0.0037,20.15
319066599482800,615516,-3.2578,3.6574,-8.3521,0.0269,-0.0428,-0.0012,20.15
319066610777900,615527,-3.2124,3.6993,-8.3773,0.0232,-0.0428,-0.0073,20.16
319066622359500,615538,-3.1705,3.6885,-8.3964,0.0220,-0.0452,-0.0171,20.16
319066633229700,615549,-3.1789,3.6802,-8.4156,0.0171,-0.0452,-0.0269,20.14
319066644315400,615561,-3.1837,3.6538,-8.3988,0.0061,-0.0452,-0.0342,20.14
319066656225800,615572,-3.2530,3.5916,-8.3378,-0.0024,-0.0476,-0.0440,20.11
319066667415600,615583,-3.2985,3.6096,-8.3103,-0.0012,-0.0513,-0.0428,20.16
319066678586000,615595,-3.3392,3.6144,-8.2696,-0.0049,-0.0538,-0.0452,20.16
319066689377300,615606,-3.3547,3.6168,-8.2301,-0.0061,-0.0550,-0.0452,20.15
319066701348400,615617,-3.3835,3.6443,-8.2170,-0.0049,-0.0550,-0.0415,20.15
319066712402300,615629,-3.4193,3.6467,-8.1846,-0.0061,-0.0550,-0.0391,20.17
319066723655400,615641,-3.4253,3.6371,-8.1380,-0.0037,-0.0538,-0.0379,20.17
319066735057500,615652,-3.4241,3.6299,-8.1954,0.0024,-0.0489,-0.0330,20.15
319066746199100,615663,-3.3799,3.6156,-8.2373,0.0208,-0.0415,-0.0281,20.14
319066757300700,615674,-3.3631,3.6036,-8.3079,0.0220,-0.0415,-0.0269,20.14
319066768442600,615686,-3.3440,3.5976,-8.3605,0.0232,-0.0452,-0.0293,20.16
319066780429600,615697,-3.3523,3.5701,-8.3904,0.0171,-0.0513,-0.0293,20.16
319066791358100,615708,-3.3631,3.5605,-8.4000,0.0024,-0.0586,-0.0269,20.13
319066802440400,615719,-3.3882,3.5545,-8.3701,-0.0110,-0.0648,-0.0208,20.13
319066814279300,615731,-3.4098,3.5737,-8.3306,-0.0195,-0.0684,-0.0122,20.14
319066825463900,615742,-3.4409,3.6024,-8.1882,-0.0269,-0.0745,0.3054,20.14
319066836469200,615753,-3.4528,3.6311,-8.1488,-0.0342,-0.0745,0.0098,20.12
319066847442700,615764,-3.4074,3.6778,-8.1559,-0.0269,-0.0660,0.0183,20.14
319066859290300,615776,-3.3799,3.7316,-8.2253,-0.0220,-0.0550,0.0195,20.14
319066870366300,615787,-3.3356,3.7113,-8.2624,-0.0183,-0.0464,0.0134,20.10
319066881494200,615798,-3.2961,3.7041,-8.3079,-0.0110,-0.0403,0.0086,20.10
319066892499100,615810,-3.2674,3.7101,-8.3593,-0.0061,-0.0403,0.0037,20.14
319066904456300,615821,-3.2363,3.6957,-8.3833,-0.0086,-0.0464,0.0000,20.14
319066915419700,615832,-3.1872,3.6694,-8.3186,-0.0159,-0.0550,0.0000,20.14
319066926553400,615843,-3.1525,3.6861,-8.2768,-0.0428,-0.0709,0.0024,20.16
319066937477100,615855,-3.1298,3.7543,-8.2134,-0.0391,-0.0806,0.0000,20.16
319066949381200,615866,-3.1226,3.7878,-8.1643,-0.0440,-0.0819,-0.0110,20.16
319066960544600,615877,-3.1202,3.8094,-8.1488,-0.0464,-0.0745,-0.0232,20.16
319066971434200,615888,-3.1442,3.8429,-8.1906,-0.0367,-0.0611,-0.0379,20.15
319066983362300,615900,-3.1430,3.8548,-8.2181,-0.0281,-0.0501,-0.0562,20.15
319066994403600,615911,-3.1633,3.8166,-8.2481,-0.0183,-0.0452,-0.0696,20.19
319067005582600,615922,-3.1801,3.7938,-8.2911,-0.0354,-0.0525,-0.0892,20.19
319067017169700,615933,-3.1992,3.7484,-8.2014,-0.0611,-0.0721,-0.0941,20.16
319067028388300,615945,-3.1848,3.7472,-8.0710,-0.0611,-0.0892,-0.0892,20.13
319067039428300,615956,-3.1980,3.7854,-8.1751,-0.0513,-0.1038,-0.0880,20.13
319067050567100,615967,-3.3368,3.8118,-8.1308,-0.0391,-0.1307,-0.1002,20.13
319067062370300,615979,-3.2853,3.6993,-7.9968,-0.0721,-0.1417,-0.1038,20.13
319067073396800,615990,-3.3320,3.9027,-8.0842,-0.0293,-0.1344,-0.0941,20.14
319067084539800,616001,-3.4947,3.8584,-7.9789,-0.0183,-0.1417,-0.1112,20.14
319067096037700,616012,-3.6443,3.7783,-8.0231,0.0440,-0.1332,-0.1051,20.12
319067107127100,616024,-3.6395,3.7292,-8.0291,0.0452,-0.1258,-0.0916,20.12
319067118346200,616035,-3.6694,3.7292,-8.0949,0.0464,-0.1173,-0.0794,20.12
319067129113800,616046,-3.6993,3.7005,-8.0949,0.0550,-0.1100,-0.0660,20.14
319067140928000,616057,-3.6503,3.6921,-8.1320,0.0794,-0.1014,-0.0501,20.14
319067151959600,616069,-3.6227,3.7041,-8.1894,0.0892,-0.0977,-0.0354,20.11
319067163030600,616080,-3.5689,3.6814,-8.2265,0.0867,-0.1014,-0.0232,20.11
319067175040700,616091,-3.5581,3.6634,-8.2313,0.0806,-0.1051,-0.0122,20.19
319067186110900,616102,-3.5462,3.6491,-8.2110,0.0538,-0.1087,0.0024,20.12
319067197091500,616114,-3.5043,3.6742,-8.1775,0.0391,-0.1075,0.0122,20.12
319067207981700,616125,-3.4672,3.7400,-8.1476,0.0305,-0.1075,0.0232,20.15
319067219922700,616136,-3.4469,3.7783,-8.1344,0.0257,-0.1087,0.0220,20.15
319067230974700,616147,-3.4612,3.7615,-8.1236,0.0244,-0.1087,0.0171,20.16
319067242107200,616159,-3.4684,3.7304,-8.1260,0.0208,-0.1075,0.0159,20.16
319067253054800,616170,-3.4851,3.7184,-8.1165,0.0208,-0.1051,0.0183,20.20
319067265123300,616181,-3.4863,3.7519,-8.0734,0.0269,-0.1038,0.0171,20.20
319067276107500,616193,-3.4935,3.7316,-8.0877,0.0183,-0.0965,0.0134,20.14
319067287318100,616204,-3.4816,3.7089,-8.0901,0.0147,-0.0916,0.0122,20.16
319067298188100,616215,-3.4469,3.7448,-8.1200,0.0134,-0.0904,0.0159,20.16
319067310028700,616226,-3.3870,3.7460,-8.1811,0.0110,-0.0916,0.0159,20.12
319067321072100,616238,-3.3488,3.7783,-8.2002,0.0232,-0.0953,0.0073,20.12
319067332051600,616249,-3.2686,3.7543,-8.1930,0.0220,-0.0941,-0.0037,20.18
319067343094000,616260,-3.2267,3.7519,-8.2660,0.0342,-0.0929,-0.0073,20.18
319067355159200,616271,-3.2136,3.7615,-8.2983,0.0476,-0.0977,-0.0195,20.13
319067366174200,616283,-3.2183,3.8082,-8.3510,0.0232,-0.1197,-0.0269,20.17
319067377063300,616294,-3.2423,3.8154,-8.3402,0.0098,-0.1344,-0.0367,20.17
319067388956400,616305,-3.2602,3.7878,-8.3737,-0.0281,-0.1478,-0.0379,20.13
319067400038000,616316,-3.4289,3.7256,-8.3868,-0.0977,-0.1662,-0.0244,20.13
319067411017000,616328,-3.3835,3.7256,-8.3617,-0.1319,-0.2016,-0.0073,20.17
319067422965500,616339,-3.4648,3.8213,-8.3964,-0.1686,-0.2370,0.0159,20.17
319067434013800,616350,-3.4744,3.9625,-8.3701,-0.3054,-0.2798,0.0354,20.17
319067445158000,616361,-3.2806,3.3631,-8.0255,-0.4300,-0.3555,0.0623,20.17
319067456092400,616373,-4.1312,4.9579,-7.8233,0.0244,-0.3189,-0.0403,20.17
319067468056400,616384,-4.6373,3.2291,-7.0780,-0.0525,-0.3457,-0.1014,20.13
319067479110800,616396,-4.0690,3.3799,-6.5647,0.8015,-0.2944,0.0232,20.13
319067490036900,616408,-3.4146,4.4578,-7.5135,1.2620,-0.1820,0.0757,20.18
319067502046400,616419,-3.3631,4.2724,-8.0004,1.2449,-0.1429,-0.0220,20.18
319067513043300,616430,-3.8668,4.1994,-7.6475,1.1277,-0.1588,-0.1881,20.16
319067524179800,616441,-3.5079,3.7484,-8.5747,0.7807,-0.1161,-0.1820,20.16
319067535130100,616453,-3.1621,4.0869,-8.7326,0.8833,0.0354,-0.0745,20.18
319067547081600,616464,-3.3799,3.5282,-8.4574,0.7868,-0.0562,-0.1552,20.14
319067558127700,616475,-3.3380,3.3930,-8.5795,0.6536,-0.0538,-0.1918,20.14
319067569077700,616486,-3.1884,3.1454,-8.7697,0.6084,-0.0049,-0.2517,20.17
319067581057600,616498,-3.2076,3.3727,-8.7374,0.7440,-0.0110,-0.3372,20.17
319067592090000,616509,-3.3464,3.2889,-8.7015,0.7465,-0.0232,-0.3641,20.17
319067603115100,616520,-3.3906,2.9791,-8.6871,0.7159,-0.0464,-0.3812,20.17
319067615032700,616531,-3.5964,2.9420,-8.3330,0.9004,-0.1307,-0.3714,20.16
319067626112200,616543,-3.7639,2.8283,-8.2122,1.0116,-0.2321,-0.3262,20.16
319067637110500,616554,-3.8477,2.6393,-8.3928,1.0971,-0.2822,-0.2590,20.16
319067648145900,616565,-3.7376,2.5854,-8.4060,1.0996,-0.3238,-0.1649,20.15
319067660079000,616577,-3.4839,2.9085,-8.8032,1.0812,-0.3885,-0.0770,20.15
319067671064700,616588,-3.4469,2.9360,-9.2124,1.0678,-0.5095,-0.0305,20.16
319067682149800,616599,-3.4050,3.1322,-9.2674,1.1814,-0.6866,-0.0452,20.16
319067694086000,616610,-3.6814,2.8510,-9.3523,1.2498,-0.8674,-0.0770,20.18
319067705070700,616622,-3.9362,2.5627,-9.0054,1.1289,-1.1448,-0.0220,20.18
319067716134000,616633,-4.0427,2.2385,-8.9850,1.0544,-1.2462,0.0208,20.19
319067727110600,616644,-4.1803,1.8640,-8.8989,1.0531,-1.3256,0.0794,20.20
319067739002200,616655,-4.2664,2.1009,-8.7577,1.0592,-1.3928,0.1283,20.20
319067750096500,616667,-4.2030,2.1691,-8.6309,0.8919,-1.4074,0.1222,20.23
319067761048700,616678,-4.3119,2.0243,-8.4455,0.7172,-1.3366,0.0953,20.23
319067772951300,616689,-4.3705,2.0399,-8.1320,0.6243,-1.2071,0.0574,20.16
319067784042100,616700,-4.2772,2.1500,-8.1512,0.5803,-1.0837,0.0086,20.16
319067795067800,616712,-3.9194,2.1607,-8.4670,0.5327,-0.9212,-0.0867,20.21
319067807114000,616723,-3.9733,1.8592,-8.6524,0.6219,-0.9200,-0.1539,20.19
319067818142300,616734,-3.9817,1.5541,-9.0796,0.8540,-1.0214,-0.2028,20.19
319067829054500,616745,-4.0415,1.4836,-9.3667,1.0140,-1.1839,-0.2199,20.16
319067840126600,616757,-4.2508,1.1234,-9.4337,0.9224,-1.3683,-0.2346,20.16
319067852069300,616769,-4.4471,0.7501,-9.2459,0.7978,-1.5577,-0.2199,20.18
319067863064900,616780,-4.6983,0.5408,-8.9791,0.6610,-1.7006,-0.1759,20.18
319067873984500,616792,-4.9878,0.3302,-8.4144,0.5143,-1.8069,-0.0281,20.16
319067885924700,616803,-5.0955,0.6748,-8.0746,0.4655,-2.0171,0.0281,20.23
319067896980200,616814,-5.3874,0.5635,-7.7468,0.2443,-2.0928,0.0122,20.23
319067908035200,616825,-5.6889,0.4104,-7.1940,0.0195,-2.1380,-0.0073,20.20
319067919050400,616837,-6.0658,0.5384,-6.6724,-0.0990,-2.1185,0.0073,20.20
319067931041600,616848,-6.1962,0.6425,-6.4355,-0.1344,-2.0537,-0.0086,20.20
319067942038900,616859,-6.2955,0.6724,-6.3015,-0.0623,-2.0012,-0.0623,20.20
319067953052600,616870,-6.4499,0.6963,-6.1412,-0.0061,-1.9438,-0.1356,20.18
319067965079800,616882,-7.0289,0.5216,-5.7703,0.1442,-1.8888,-0.3201,20.18
319067976098900,616893,-7.4082,0.4020,-5.3372,0.1710,-1.8570,-0.3409,20.18
319067987085000,616904,-7.7121,0.3912,-5.0560,0.1674,-1.8204,-0.2920,20.20
319067999007900,616915,-8.0806,0.3290,-4.9364,0.1295,-1.7996,-0.2040,20.20
319068009970900,616927,-8.2911,0.4092,-4.6493,0.1210,-1.8033,-0.1100,20.18
319068021173400,616938,-8.4299,0.3147,-4.3310,0.0648,-1.8069,-0.0195,20.18
319068032370300,616949,-8.5208,0.5623,-3.9709,0.1063,-1.8240,0.0391,20.17
319068044122600,616961,-8.6548,0.8363,-3.3368,0.2114,-1.8253,0.0550,20.17
319068055240000,616972,-8.6740,1.1797,-2.9348,0.1710,-1.7507,0.0648,20.20
319068066611400,616983,-8.7553,1.0576,-2.7613,0.1442,-1.6054,0.0024,20.22
319068078103300,616994,-8.8941,0.9583,-2.7087,0.1552,-1.4258,-0.0635,20.22
319068089266400,617006,-8.9456,0.9476,-2.6154,0.1600,-1.2511,-0.1124,20.21
319068100296300,617017,-8.9444,1.1091,-2.5519,0.1564,-1.0849,-0.1393,20.21
319068111501100,617028,-8.9623,1.2156,-2.4179,0.1747,-0.9114,-0.1869,20.18
319068123276200,617039,-9.0532,1.0576,-2.3246,0.2004,-0.7086,-0.2541,20.18
319068134155200,617051,-8.9791,0.6485,-2.7386,0.2688,-0.4862,-0.2957,20.19
319068145240800,617062,-8.8582,0.3577,-3.2782,0.4520,-0.1588,-0.2993,20.17
319068157175700,617073,-8.6764,0.0718,-3.7567,0.5143,-0.1075,-0.2932,20.17
319068168135700,617084,-8.5376,-0.0096,-4.1384,0.5070,-0.1136,-0.2822,20.18
319068179248000,617096,-8.4969,-0.1340,-4.4447,0.4948,-0.1552,-0.2847,20.18
319068191069200,617107,-8.5723,-0.2752,-4.4889,0.4765,-0.2138,-0.2749,20.17
319068202284200,617118,-8.6895,-0.3829,-4.4088,0.4398,-0.2663,-0.2419,20.17
319068213401800,617129,-8.7075,-0.4271,-4.3322,0.3983,-0.2810,-0.2016,20.21
319068225202900,617142,-8.6094,-0.3302,-4.5966,0.3580,-0.2822,-0.1332,20.21
319068236120500,617153,-8.6824,-0.2776,-4.9890,0.3897,-0.3445,-0.1307,20.21
319068247292400,617164,-8.9695,-0.5599,-5.2307,0.4374,-0.4643,-0.1600,20.19
319068258310400,617176,-9.3428,-0.9308,-5.1733,0.4667,-0.5901,-0.1625,20.19
319068270326600,617187,-9.5940,-1.0409,-4.9065,0.4276,-0.6720,-0.0929,20.21
319068281383700,617198,-9.7412,-0.8901,-4.4530,0.3274,-0.6891,0.0195,20.21
319068292212200,617209,-9.8309,-0.7143,-4.1228,0.2615,-0.6316,0.1161,20.16
319068304026200,617221,-9.8632,-0.5755,-3.8907,0.2883,-0.5217,0.1625,20.16
319068315220500,617232,-9.6180,-0.3123,-3.8154,0.3360,-0.2773,0.1674,20.21
319068326278400,617243,-9.4576,-0.1125,-3.8189,0.3286,-0.1772,0.1429,20.18
319068337975700,617254,-9.2255,0.0371,-3.8441,0.3396,-0.0990,0.0965,20.18
319068349123100,617266,-9.2973,0.1017,-3.8788,0.3702,-0.0391,0.0415,20.18
319068360173700,617277,-9.2363,-0.2859,-3.7531,0.3543,-0.0012,-0.0012,20.18
319068371409100,617288,-9.0162,-0.3374,-3.7125,0.3580,0.0635,0.0147,20.20
319068383044200,617299,-8.7673,-0.0849,-3.8261,0.3580,0.1442,0.0428,20.20
319068394247700,617311,-8.3988,0.2070,-4.1348,0.3054,0.1991,0.0403,20.20
319068405271700,617322,-8.4359,-0.2357,-4.1180,0.2370,0.2004,-0.0709,20.19
319068416643600,617333,-8.4419,-0.5982,-4.0929,0.2211,0.2040,-0.0733,20.19
319068428182800,617345,-8.3904,-0.4080,-4.1815,0.2419,0.2382,-0.0501,20.18
319068439143900,617356,-8.1344,-0.3781,-4.2138,0.2248,0.2541,-0.0452,20.18
319068450549300,617367,-8.7362,-0.2405,-4.0786,0.2627,0.2578,-0.0770,20.22
319068462061300,617378,-8.4072,-0.8219,-3.8967,0.2162,0.2676,-0.0867,20.22
319068473153500,617390,-8.1320,-0.5300,-3.9601,0.2786,0.3213,-0.0464,20.20
319068484294200,617401,-7.8054,-0.2704,-4.4853,0.3018,0.3592,-0.1454,20.20
319068495361000,617412,-7.8867,-0.5157,-4.6325,0.3054,0.3103,-0.2150,20.20
319068507192800,617423,-7.9179,-0.5934,-4.8718,0.3030,0.2810,-0.2419,20.18
319068518299600,617435,-8.1380,-0.5444,-5.2343,0.2834,0.2089,-0.2407,20.18
319068529347800,617446,-8.1870,-1.0899,-4.9424,0.1588,0.0819,-0.2077,20.17
319068541080400,617457,-8.5771,-0.8435,-4.7151,0.1796,0.0452,-0.1674,20.17
319068552290300,617468,-8.8319,-0.6317,-4.7569,0.2138,0.0147,-0.1148,20.18
319068563431600,617480,-9.1382,-0.9081,-4.4937,0.1649,-0.0293,-0.0794,20.18
319068574317300,617491,-9.5761,-1.0481,-4.2820,0.2590,0.0024,0.0953,20.18
319068586266000,617502,-9.5175,-0.7083,-4.4997,0.2786,0.0293,0.2187,20.15
319068597224200,617513,-9.4014,-0.3996,-4.6469,0.2761,0.0012,0.3091,20.15
319068608398600,617525,-9.2770,-0.3290,-4.6397,0.2969,-0.0525,0.3555,20.18
319068619364500,617536,-9.1729,-0.2620,-4.6744,0.3176,-0.0867,0.3714,20.18
319068631161700,617547,-9.1023,-0.1507,-4.6146,0.2798,-0.1063,0.3751,20.18
319068642199700,617559,-9.0808,-0.0969,-4.4842,0.2028,-0.1136,0.3726,20.18
319068653462800,617570,-9.0449,-0.0491,-4.1982,0.1405,-0.0990,0.3665,20.19
319068665339700,617581,-8.8642,-0.0096,-4.2903,0.2419,-0.0440,0.3396,20.20
319068676205500,617592,-8.7278,-0.0251,-4.4483,0.3054,-0.0293,0.3262,20.20
319068687348400,617604,-8.5735,-0.0502,-4.4889,0.3225,-0.0305,0.3189,20.17
319068698444300,617615,-8.3545,-0.1137,-4.5631,0.3262,-0.0232,0.3201,20.17
319068710207700,617626,-8.0806,-0.0574,-4.8778,0.3543,-0.0183,0.3152,20.15
319068721201000,617637,-7.9334,-0.0335,-5.1374,0.3384,-0.0428,0.2896,20.15
319068732388300,617649,-7.9466,-0.0610,-5.1517,0.2456,-0.0916,0.2590,20.18
319068744088300,617660,-8.0052,-0.1161,-4.8897,0.1295,-0.1454,0.2456,20.18
319068755164200,617671,-8.2014,-0.1244,-4.6971,0.0525,-0.2321,0.2480,20.17
319068766528000,617682,-8.2672,-0.1017,-4.5691,0.1381,-0.2480,0.2431,20.19
319068777415600,617694,-8.2289,-0.1161,-4.5308,0.1906,-0.2395,0.2211,20.19
319068789152100,617706,-8.1356,-0.0120,-4.6002,0.2028,-0.2065,0.1723,20.17
319068800231400,617717,-8.0076,-0.0239,-4.6600,0.1967,-0.1698,0.1038,20.17
319068811043600,617729,-7.8915,-0.0323,-4.7067,0.2101,-0.1356,0.0403,20.16
319068823017500,617740,-7.7360,-0.0706,-4.8562,0.2101,-0.1161,-0.0195,20.16
319068834253200,617751,-7.7001,-0.0251,-4.8395,0.1662,-0.1429,-0.1381,20.18
319068845408500,617762,-7.8652,-0.1376,-4.6863,0.0501,-0.2847,-0.1662,20.18
319068856458300,617774,-8.0279,-0.1759,-4.6325,0.0269,-0.3592,-0.1710,20.18
319068868238800,617785,-8.3318,-0.1831,-4.3801,0.0000,-0.4313,-0.1588,20.20
319068879146100,617796,-8.6441,-0.2261,-4.0810,0.0098,-0.4655,-0.1295,20.20
319068890413900,617807,-8.8606,-0.3218,-3.9733,0.0367,-0.4447,-0.1002,20.18
319068902021900,617819,-8.9671,-0.2082,-3.9876,0.0440,-0.3897,-0.0867,20.18
319068913200800,617830,-8.9994,-0.1723,-3.9984,0.0195,-0.3189,-0.1075,20.20
319068924295500,617841,-9.0233,-0.0586,-4.2221,0.0318,-0.1930,-0.1356,20.20
319068935433600,617852,-8.9946,0.0658,-4.1934,0.0452,-0.1845,-0.1246,20.18
319068947329200,617864,-9.1071,0.0730,-4.2090,0.0806,-0.1894,-0.0880,20.21
319068958286300,617875,-9.1872,-0.0179,-4.2520,0.0538,-0.1955,-0.0244,20.21
319068969446100,617886,-9.2052,-0.0574,-4.3370,0.0122,-0.1930,0.0403,20.20
319068980480700,617897,-9.2698,-0.1280,-4.4590,0.0110,-0.1820,0.0684,20.20
319068992164700,617909,-9.3667,-0.3099,-4.5787,0.0391,-0.1613,0.0855,20.16
319069003430500,617920,-9.4014,-0.5850,-4.6828,0.0379,-0.1368,0.1332,20.16
319069014459700,617931,-9.1334,-0.1496,-4.7163,0.1539,-0.0648,0.1918,20.14
319069026312600,617943,-8.9946,-0.2297,-4.6828,0.1356,-0.0440,0.1943,20.18
319069037256700,617954,-8.8834,-0.1196,-4.5464,0.1332,-0.0440,0.2199,20.18
319069048367800,617965,-8.8008,-0.0610,-4.5679,0.1185,-0.0354,0.2456,20.21
319069059567000,617976,-8.6967,-0.0263,-4.5356,0.0611,-0.0513,0.2651,20.21
319069071335600,617988,-8.5531,0.1699,-4.4530,0.0073,-0.0929,0.2505,20.17
319069082568500,617999,-8.5340,0.2166,-4.3382,0.0073,-0.1429,0.2211,20.17
319069093675000,618010,-8.5496,0.2620,-3.8991,0.0147,-0.1894,0.2004,20.19
319069104735900,618021,-8.5795,0.3099,-3.8321,0.0476,-0.2028,0.1698,20.17
319069116451100,618033,-8.5866,0.3422,-3.8584,0.0623,-0.2065,0.1344,20.17
319069127487000,618044,-8.5220,0.3170,-3.7364,0.0452,-0.2285,0.0794,20.15
319069138691000,618055,-8.5938,0.3218,-3.6407,0.0513,-0.2443,0.0379,20.15
319069150412100,618066,-8.7852,0.3194,-3.4588,0.0562,-0.2395,0.0232,20.16
319069161459200,618078,-8.8630,0.1077,-3.4038,0.0220,-0.2150,0.0318,20.16
319069172389700,618089,-8.8259,0.1256,-3.5533,0.0623,-0.2004,0.0305,20.15
319069183668900,618100,-8.9683,-0.0335,-3.8046,0.0794,-0.1967,-0.0037,20.15
319069195009700,618112,-9.0736,-0.0802,-3.7902,0.0318,-0.1991,-0.0428,20.16
319069206303700,618123,-9.1250,0.1137,-3.5593,-0.0049,-0.2089,-0.0367,20.18
319069217654100,618134,-9.0604,0.1041,-3.2853,0.0232,-0.2138,-0.0318,20.18
319069228346100,618145,-8.9719,0.3159,-3.2901,0.0892,-0.2248,-0.0208,20.18
319069240189900,618157,-9.0233,0.3422,-3.2100,0.0562,-0.2615,-0.0134,20.18
319069251293900,618168,-9.2650,0.2237,-3.0688,0.0195,-0.3005,0.0098,20.17
319069262428400,618179,-9.4170,0.2465,-2.9527,0.0415,-0.3091,0.0452,20.17
319069273787000,618190,-9.4636,-0.4164,-3.0820,0.0782,-0.3054,0.0880,20.18
319069285307600,618202,-9.4277,0.1101,-3.3308,0.1869,-0.3164,0.1991,20.16
319069296559300,618213,-9.3009,0.1854,-3.3176,0.1258,-0.3164,0.2138,20.16
319069307902000,618224,-9.1932,0.1998,-3.3284,0.0843,-0.3005,0.1857,20.17
319069319188300,618235,-9.1011,0.2082,-3.3882,0.0916,-0.2639,0.1332,20.17
319069330400900,618247,-9.0030,0.1292,-3.4923,0.1002,-0.2162,0.0660,20.18
319069341791900,618258,-9.0066,0.0778,-3.5713,0.1210,-0.1662,0.0037,20.18
319069352533400,618269,-8.9611,-0.1005,-3.6718,0.1454,-0.1185,-0.0415,20.16
319069364152900,618280,-8.8331,-0.1328,-4.0834,0.1637,-0.0855,-0.1038,20.16
319069375291400,618292,-8.8558,-0.2022,-4.0259,0.0574,-0.0904,-0.1075,20.20
319069386505300,618303,-8.8152,-0.0766,-4.0403,-0.0061,-0.1075,-0.0855,20.20
319069397684500,618314,-8.8762,0.1819,-3.8740,-0.0709,-0.1405,-0.0660,20.20
319069409416500,618326,-9.2267,0.2381,-3.7173,-0.0892,-0.1820,-0.0562,20.21
319069420407400,618337,-9.9948,0.0742,-3.5725,-0.0892,-0.2004,-0.0342,20.21
319069431742600,618348,-10.0451,0.1232,-3.4313,-0.0269,-0.1723,0.0024,20.18
319069443192900,618359,-9.8955,0.3266,-3.5916,0.0586,-0.1063,0.0257,20.18
319069454312100,618371,-9.3595,0.1687,-3.7531,0.1283,-0.0550,-0.0073,20.16
319069465533900,618382,-9.2375,0.1448,-3.6838,0.0855,-0.0501,-0.0037,20.18
319069476754900,618393,-9.1609,-0.1484,-3.5318,-0.0110,-0.0391,0.0342,20.18
319069488562800,618404,-8.7912,0.2548,-3.4624,-0.0110,-0.0330,0.0757,20.20
319069499565000,618416,-8.4849,0.3482,-3.5282,0.0134,-0.0428,0.0586,20.20
319069510972300,618427,-8.5041,0.3194,-3.6215,0.0501,-0.0635,0.0086,20.20
319069521976100,618438,-8.7673,0.1639,-3.6060,0.0489,-0.0855,-0.0269,20.20
319069533588200,618449,-9.0233,0.1460,-3.4768,0.0305,-0.1063,-0.0195,20.17
319069544568200,618461,-9.2961,0.3075,-3.4181,0.0489,-0.1124,-0.0098,20.18
319069555508700,618472,-9.3129,0.2943,-3.4588,0.0806,-0.0892,-0.0244,20.18
319069567189300,618483,-9.2686,0.1962,-3.4959,0.1038,-0.0586,-0.0391,20.16
319069578123200,618494,-9.1549,0.1328,-3.5988,0.1234,-0.0379,-0.0293,20.16
319069589453200,618506,-8.9456,0.1352,-3.6754,0.1161,-0.0379,-0.0147,20.18
319069600487100,618517,-8.8439,0.1902,-3.7053,0.0892,-0.0562,-0.0122,20.18
319069612207500,618528,-8.8738,0.2393,-3.6443,0.0635,-0.0855,-0.0195,20.20
319069623389600,618540,-9.0520,0.1878,-3.5390,0.0489,-0.1075,-0.0195,20.20
319069634474500,618551,-9.1657,0.1819,-3.4911,0.0110,-0.1051,0.0000,20.20
319069645633200,618562,-9.1202,0.2285,-3.5103,0.0037,-0.0880,-0.0012,20.18
319069657151600,618573,-9.0915,0.2333,-3.5318,0.0073,-0.0684,-0.0122,20.18
319069668262700,618585,-8.9946,0.2417,-3.5797,0.0110,-0.0623,-0.0220,20.18
319069679647800,618596,-8.9922,0.2680,-3.5773,0.0086,-0.0684,-0.0318,20.18
319069690667800,618607,-9.0281,0.2393,-3.5366,-0.0110,-0.0770,-0.0403,20.18
319069702189600,618618,-9.0748,0.2943,-3.4828,-0.0086,-0.0782,-0.0452,20.18
319069713447100,618630,-9.0592,0.2824,-3.5856,0.0012,-0.0770,-0.0440,20.20
319069724545200,618641,-8.9791,0.2991,-3.5964,0.0159,-0.0831,-0.0354,20.21
319069735281900,618652,-9.0185,0.2668,-3.5378,0.0098,-0.0916,-0.0415,20.21
319069747246600,618663,-9.0975,0.2130,-3.4816,0.0134,-0.0916,-0.0452,20.21
319069758567400,618675,-9.0879,0.2130,-3.4911,0.0208,-0.0855,-0.0452,20.21
319069769593500,618686,-9.1178,0.1819,-3.5521,0.0305,-0.0770,-0.0440,20.15
319069781091800,618697,-9.1932,0.1041,-3.5306,0.0232,-0.0745,-0.0379,20.15
319069792169300,618708,-9.1514,0.1436,-3.4636,0.0122,-0.0696,-0.0244,20.18
319069803293800,618720,-9.0197,0.2297,-3.5043,0.0318,-0.0611,-0.0208,20.18
319069814867100,618731,-9.0365,0.1866,-3.5330,0.0489,-0.0623,-0.0293,20.21
319069826106700,618742,-9.0425,0.2429,-3.5127,0.0330,-0.0672,-0.0183,20.20
319069837181500,618754,-9.0712,0.2465,-3.4971,0.0183,-0.0696,-0.0147,20.20
319069848513500,618765,-9.0975,0.1962,-3.5330,0.0208,-0.0648,-0.0208,20.18
319069859833900,618776,-9.0760,0.1926,-3.5641,0.0183,-0.0599,-0.0257,20.18
319069871313500,618787,-9.0999,0.2429,-3.5581,0.0037,-0.0635,-0.0293,20.20
319069882453600,618799,-9.1262,0.2130,-3.4744,-0.0183,-0.0672,-0.0293,20.20
319069893670600,618810,-9.0485,0.2512,-3.4828,-0.0073,-0.0635,-0.0354,20.20
319069905188100,618821,-9.0281,0.2237,-3.5139,0.0476,-0.0538,-0.0391,20.17
319069916200300,618832,-8.9862,0.2142,-3.5222,0.0574,-0.0574,-0.0391,20.17
319069927581600,618844,-8.9312,0.2237,-3.5701,0.0611,-0.0611,-0.0428,20.20
319069938627600,618855,-9.0126,0.1986,-3.5940,0.0464,-0.0684,-0.0501,20.20
319069949951600,618866,-9.1430,0.1567,-3.5174,0.0208,-0.0770,-0.0464,20.19
319069961526400,618877,-9.1777,0.1914,-3.4493,0.0134,-0.0782,-0.0342,20.19
319069972451700,618889,-9.1202,0.2536,-3.4277,0.0171,-0.0709,-0.0269,20.20
319069983673300,618900,-9.0616,0.1663,-3.5569,0.0269,-0.0538,-0.0464,20.20
319069995212000,618911,-9.0197,0.1448,-3.5785,0.0147,-0.0586,-0.0476,20.19
319070006276000,618923,-8.9396,0.1304,-3.5342,0.0122,-0.0684,-0.0464,20.24
319070017499300,618934,-8.9480,0.2955,-3.5354,0.0464,-0.0684,-0.0648,20.24
319070028591400,618945,-9.1645,-0.0179,-3.5414,0.0244,-0.0696,-0.0721,20.18
319070040182800,618956,-9.1418,0.1101,-3.5246,0.0147,-0.0782,-0.0403,20.18
319070051481100,618968,-9.1047,0.2859,-3.4804,0.0110,-0.0831,-0.0220,20.19
319070062468000,618979,-9.0915,0.3446,-3.3846,0.0147,-0.0831,-0.0293,20.19
319070074042800,618990,-9.0520,0.2788,-3.4062,0.0501,-0.0574,-0.0550,20.22
319070085156900,619001,-9.0150,0.2070,-3.5701,0.0635,-0.0464,-0.0623,20.13
319070096353200,619013,-8.9707,0.1232,-3.7017,0.0415,-0.0513,-0.0611,20.13
319070107524800,619024,-9.0293,0.1101,-3.7065,0.0061,-0.0696,-0.0525,20.21
319070118591700,619035,-9.1083,0.0897,-3.5773,-0.0195,-0.0904,-0.0391,20.21
319070130232800,619046,-9.1083,0.1196,-3.5222,-0.0122,-0.0977,-0.0293,20.18
319070141486700,619058,-9.0867,0.1412,-3.5282,0.0037,-0.0916,-0.0269,20.18
319070152763700,619069,-9.0401,0.1890,-3.5916,0.0159,-0.0929,-0.0244,20.18
319070164096200,619080,-9.1047,0.2082,-3.3751,-0.0049,-0.1173,-0.0232,20.19
319070175304100,619091,-9.1143,0.2453,-3.3153,0.0122,-0.1002,-0.0220,20.19
319070186373700,619103,-9.0915,0.2453,-3.3667,0.0379,-0.0831,-0.0257,20.21
319070197379500,619114,-9.1502,0.1663,-3.4253,0.0428,-0.0757,-0.0293,20.21
319070209130400,619125,-9.1621,0.1161,-3.3799,0.0281,-0.0684,-0.0257,20.22
319070220857700,619137,-9.1358,0.1986,-3.3858,0.0232,-0.0586,-0.0208,20.22
319070231458100,619148,-9.0616,0.2106,-3.4002,0.0195,-0.0525,-0.0220,20.19
319070242539900,619159,-9.0281,0.2572,-3.5258,0.0281,-0.0489,-0.0330,20.19
319070254427500,619170,-9.0844,0.2094,-3.5569,0.0257,-0.0550,-0.0367,20.21
319070265399200,619182,-9.0939,0.1914,-3.5270,0.0208,-0.0586,-0.0318,20.19
319070276491700,619193,-9.0664,0.1986,-3.5103,0.0305,-0.0586,-0.0305,20.19
319070287661000,619204,-9.0820,0.1938,-3.5139,0.0379,-0.0562,-0.0330,20.20
319070299286500,619215,-9.0844,0.1268,-3.4672,0.0281,-0.0574,-0.0342,20.20
319070310416000,619227,-9.0855,0.1484,-3.4780,0.0232,-0.0586,-0.0318,20.21
319070321528000,619238,-9.1131,0.1364,-3.4576,0.0232,-0.0586,-0.0305,20.21
319070333093200,619249,-9.1370,0.1914,-3.4624,0.0171,-0.0586,-0.0244,20.23
319070344288800,619260,-9.0437,0.2225,-3.4887,0.0232,-0.0586,-0.0208,20.22
319070355476200,619272,-9.0975,0.1890,-3.4600,0.0147,-0.0611,-0.0269,20.22
319070366594400,619283,-9.1035,0.1890,-3.4385,0.0073,-0.0586,-0.0269,20.18
319070378142300,619294,-9.1454,0.2082,-3.4301,0.0037,-0.0550,-0.0293,20.18
319070389367500,619305,-9.1561,0.1998,-3.3942,0.0024,-0.0538,-0.0269,20.18
319070400579500,619317,-9.1346,0.2106,-3.4409,0.0208,-0.0452,-0.0281,20.18
319070411540600,619328,-9.0784,0.1902,-3.5019,0.0318,-0.0391,-0.0293,20.18
319070423252200,619339,-9.0652,0.1627,-3.5486,0.0379,-0.0428,-0.0269,20.18
319070434479500,619351,-9.0377,0.1711,-3.5163,0.0305,-0.0489,-0.0232,20.16
319070445512000,619362,-9.0389,0.1926,-3.5019,0.0342,-0.0501,-0.0195,20.18
319070456599900,619373,-9.0544,0.1819,-3.5163,0.0391,-0.0550,-0.0208,20.18
319070468390600,619384,-9.0999,0.1651,-3.5186,0.0342,-0.0562,-0.0208,20.21
319070479530800,619396,-9.1107,0.1699,-3.4804,0.0244,-0.0538,-0.0183,20.21
319070490839300,619407,-9.0903,0.2465,-3.4457,0.0232,-0.0525,-0.0183,20.19
319070501993600,619418,-9.1394,0.2500,-3.3954,0.0244,-0.0538,-0.0257,20.19
319070513294900,619429,-9.0425,0.2608,-3.3918,0.0208,-0.0501,-0.0244,20.19
319070524432900,619441,-9.0197,0.2405,-3.4959,0.0550,-0.0244,-0.0318,20.20
319070535566500,619452,-9.0329,0.1771,-3.5868,0.0513,-0.0269,-0.0403,20.20
319070547247200,619463,-9.0927,0.1472,-3.6299,0.0476,-0.0342,-0.0415,20.25
319070558261200,619474,-9.1083,0.0945,-3.6227,0.0342,-0.0403,-0.0342,20.25
319070569552800,619486,-9.0676,0.1711,-3.5868,0.0318,-0.0415,-0.0208,20.20
319070580489600,619497,-9.0185,0.2022,-3.5605,0.0354,-0.0464,-0.0159,20.20
319070592273200,619508,-9.0018,0.1723,-3.5342,0.0403,-0.0501,-0.0159,20.23
319070603319800,619520,-9.0485,0.2142,-3.5007,0.0391,-0.0489,-0.0098,20.23
319070614393300,619531,-9.0425,0.1962,-3.5593,0.0574,-0.0525,-0.0171,20.21
319070625504200,619542,-9.0772,0.1926,-3.5450,0.0403,-0.0599,-0.0208,20.20
319070637164500,619553,-9.1011,0.1687,-3.4947,0.0281,-0.0611,-0.0183,20.20
319070648452500,619565,-9.0832,0.1866,-3.4995,0.0220,-0.0611,-0.0086,20.20
319070659983200,619576,-9.0389,0.2106,-3.4971,0.0244,-0.0623,-0.0061,20.20
319070670557800,619587,-8.9767,0.2130,-3.5246,0.0452,-0.0623,-0.0147,20.18
319070682325700,619598,-8.9910,0.1902,-3.5952,0.0623,-0.0635,-0.0281,20.18
319070693398600,619610,-9.1167,0.1460,-3.5282,0.0513,-0.0831,-0.0293,20.18
319070704616100,619621,-9.0855,0.1531,-3.5151,0.0354,-0.0806,-0.0244,20.20
319070715576900,619632,-9.0030,0.1723,-3.5868,0.0342,-0.0770,-0.0257,20.20
319070727312600,619643,-9.0437,0.1448,-3.6036,0.0183,-0.0806,-0.0330,20.17
319070738692800,619655,-9.0879,0.1424,-3.5282,-0.0037,-0.0831,-0.0330,20.17
319070749522800,619666,-9.0736,0.1950,-3.4624,0.0012,-0.0806,-0.0257,20.19
319070760683600,619677,-9.0664,0.2656,-3.4516,0.0220,-0.0806,-0.0257,20.19
319070772305300,619688,-9.1131,0.2142,-3.4493,0.0293,-0.0806,-0.0305,20.19
319070783633400,619700,-9.1047,0.1723,-3.4947,0.0342,-0.0709,-0.0220,20.19
319070794531500,619711,-9.0652,0.1747,-3.5007,0.0257,-0.0684,-0.0244,20.17
319070806072900,619722,-9.0616,0.1819,-3.4636,0.0147,-0.0672,-0.0257,20.19
319070817385700,619734,-9.0473,0.1831,-3.4540,0.0147,-0.0684,-0.0244,20.19
319070828378600,619745,-9.0305,0.1831,-3.5043,0.0208,-0.0672,-0.0281,20.18
319070839615100,619756,-9.0844,0.1902,-3.5163,0.0110,-0.0672,-0.0342,20.18
319070851212300,619767,-9.1214,0.1819,-3.4684,0.0000,-0.0709,-0.0305,20.19
319070862370400,619779,-9.0748,0.2094,-3.4923,0.0122,-0.0733,-0.0244,20.19
319070873320700,619790,-9.1119,0.1137,-3.6383,0.0330,-0.0672,-0.0367,20.18
319070884555200,619801,-9.1478,0.0742,-3.5186,0.0061,-0.0709,-0.0232,20.21
319070896030400,619812,-9.0664,0.2369,-3.4397,0.0073,-0.0709,0.0000,20.21
319070907474300,619824,-8.9994,0.2728,-3.4349,0.0244,-0.0733,-0.0012,20.16
319070918529200,619835,-9.0042,0.2273,-3.5079,0.0354,-0.0757,-0.0159,20.16
319070929520200,619846,-9.0341,0.1472,-3.5474,0.0293,-0.0782,-0.0257,20.18
319070941104900,619857,-9.0724,0.1531,-3.5402,0.0195,-0.0843,-0.0257,20.18
319070952227500,619869,-9.1298,0.1807,-3.4995,0.0086,-0.0855,-0.0269,20.18
319070963424600,619880,-9.0855,0.1723,-3.4576,0.0171,-0.0757,-0.0305,20.14
319070974499300,619891,-9.0245,0.2417,-3.5198,0.0183,-0.0757,-0.0305,20.14
319070986076400,619902,-9.0329,0.3039,-3.4983,0.0098,-0.0916,-0.0305,20.18
319070997200800,619914,-9.0688,0.2680,-3.4564,0.0073,-0.1063,-0.0354,20.18
319071008559000,619925,-9.1083,0.2130,-3.4672,-0.0037,-0.1051,-0.0428,20.20
319071019277400,619936,-9.0999,0.1436,-3.5306,-0.0147,-0.0965,-0.0452,20.20
319071031302200,619948,-9.0341,0.1364,-3.5414,-0.0195,-0.0904,-0.0452,20.17
319071042461100,619959,-8.9599,0.1842,-3.5713,-0.0147,-0.0929,-0.0452,20.17
319071053579800,619970,-9.0748,0.1519,-3.5222,-0.0244,-0.1222,-0.0562,20.20
319071065250500,619981,-9.1286,0.1316,-3.4074,-0.0354,-0.1332,-0.0452,20.17
319071076321200,619993,-9.1478,0.2548,-3.3559,-0.0257,-0.1356,-0.0367,20.17
319071087663400,620004,-9.0915,0.2237,-3.3272,-0.0134,-0.1332,-0.0379,20.18
319071098516400,620015,-9.0329,0.2237,-3.4158,0.0183,-0.1295,-0.0415,20.18
319071110266000,620026,-9.6622,0.0000,-3.2471,0.0122,-0.1197,-0.0428,20.20
319071121634900,620038,-9.1334,0.4104,-3.4863,0.0220,-0.0855,-0.0159,20.20
319071132398700,620049,-9.1023,0.1651,-3.4457,0.0513,-0.0916,-0.0379,20.14
319071143454000,620060,-9.0867,0.2273,-3.3284,-0.0037,-0.0855,-0.0501,20.20
319071155194100,620071,-9.1167,0.1783,-3.2195,0.0061,-0.0733,-0.0525,20.20
319071166358300,620083,-9.0951,0.1747,-3.2770,0.0391,-0.0623,-0.0550,20.19
319071177339600,620094,-9.1083,0.0993,-3.3260,0.0476,-0.0489,-0.0513,20.19
319071189005800,620105,-9.1370,0.0227,-3.4708,0.0623,-0.0415,-0.0538,20.15
319071200062500,620116,-9.1633,-0.0179,-3.4445,0.0354,-0.0452,-0.0452,20.15
319071211193700,620128,-9.2088,0.1699,-3.4217,0.0147,-0.0574,-0.0281,20.16
319071222186000,620139,-9.1238,0.1699,-3.2949,0.0281,-0.0709,-0.0183,20.16
319071234052600,620150,-9.1190,0.1627,-3.2447,0.0330,-0.0660,-0.0208,20.19
319071245054400,620162,-9.1322,0.1388,-3.2949,0.0525,-0.0513,-0.0195,20.18
319071256090200,620173,-9.1454,0.3661,-3.2650,0.0550,-0.0464,-0.0293,20.18
319071267161200,620184,-9.1442,0.1232,-3.2423,0.0880,-0.0464,-0.0794,20.18
319071279004400,620195,-9.1884,0.1914,-3.3930,0.1173,-0.0354,-0.0660,20.18
319071290474300,620207,-9.0688,0.1735,-3.3978,0.1258,-0.0452,-0.0806,20.20
319071301372700,620218,-9.1741,0.1232,-3.4457,0.1307,-0.0440,-0.0721,20.20
319071312409000,620229,-9.1334,0.1460,-3.3930,0.1368,-0.0574,-0.0696,20.19
319071324319500,620240,-9.1466,0.1771,-3.3763,0.1442,-0.0635,-0.0696,20.18
319071335670400,620252,-9.1478,0.1998,-3.4277,0.1429,-0.0672,-0.0684,20.18
319071346450400,620263,-9.1346,0.1424,-3.4505,0.1381,-0.0721,-0.0721,20.19
319071358275600,620274,-9.0485,0.0897,-3.4744,0.1185,-0.0733,-0.0672,20.19
319071369410800,620285,-9.0413,0.0610,-3.4708,0.1112,-0.0660,-0.0611,20.20
319071380397700,620297,-9.0975,0.0443,-3.4887,0.0990,-0.0635,-0.0599,20.20
319071391539500,620308,-9.0712,0.0251,-3.4792,0.0770,-0.0648,-0.0525,20.19
319071403067100,620319,-9.0449,0.0299,-3.5127,0.0660,-0.0648,-0.0415,20.19
319071414280000,620331,-9.0999,0.0323,-3.5605,0.0550,-0.0623,-0.0330,20.19
319071425744100,620342,-9.1226,0.0371,-3.5581,0.0440,-0.0672,-0.0269,20.16
319071436669200,620353,-9.1334,0.0359,-3.5330,0.0391,-0.0782,-0.0232,20.16
319071448193300,620364,-9.1238,0.0275,-3.5462,0.0440,-0.0892,-0.0208,20.18
319071459434800,620376,-9.1250,0.0431,-3.4804,0.0257,-0.1014,-0.0159,20.18
319071470565300,620387,-9.1047,0.0861,-3.3236,0.0049,-0.1063,-0.0122,20.21
319071481617400,620398,-9.1011,0.1579,-3.2160,0.0024,-0.1002,-0.0122,20.21
319071493136700,620409,-9.1083,0.2166,-3.1992,0.0513,-0.0696,-0.0330,20.21
319071504435700,620421,-9.1322,0.1663,-3.3021,0.0831,-0.0550,-0.0489,20.17
319071515729500,620432,-9.1274,0.1101,-3.3571,0.0880,-0.0464,-0.0599,20.17
319071527259300,620443,-9.1250,0.0873,-3.3858,0.0843,-0.0428,-0.0635,20.20
319071538309500,620454,-9.1346,0.0144,-3.3882,0.0867,-0.0428,-0.0648,20.20
319071549399900,620466,-9.1334,0.0000,-3.4289,0.0953,-0.0415,-0.0623,20.18
319071560777700,620477,-9.1370,-0.0299,-3.4732,0.0941,-0.0440,-0.0586,20.18
319071572076200,620488,-9.2136,-0.0826,-3.5043,0.0806,-0.0513,-0.0513,20.17
319071583354600,620499,-9.1537,-0.0227,-3.3200,0.0525,-0.0892,-0.0415,20.15
319071594394700,620511,-9.0652,0.0550,-3.3763,0.0733,-0.0831,-0.0428,20.15
319071605576100,620522,-9.1238,0.0730,-3.3081,0.0452,-0.0733,-0.0367,20.16
319071617341300,620533,-9.1047,0.1089,-3.3081,0.0452,-0.0672,-0.0415,20.16
319071628388700,620545,-9.1071,-0.0167,-3.3440,0.0586,-0.0562,-0.0501,20.20
319071639553400,620556,-9.1813,-0.0191,-3.4672,0.0696,-0.0464,-0.0464,20.20
319071650701600,620567,-9.1466,0.0263,-3.3870,0.0367,-0.0611,-0.0452,20.19
319071662302800,620578,-9.2243,-0.0347,-3.3571,0.0403,-0.0696,-0.0525,20.19
319071673385900,620590,-9.0987,-0.0072,-3.4146,0.0452,-0.0672,-0.0391,20.21
319071684628100,620601,-9.0712,0.0024,-3.3535,0.0244,-0.0623,-0.0354,20.21
319071695889900,620612,-9.0760,0.0179,-3.4361,0.0220,-0.0525,-0.0342,20.21
319071707417400,620623,-9.1442,0.0191,-3.4744,0.0171,-0.0501,-0.0330,20.17
319071718433900,620635,-9.1549,0.0120,-3.5426,0.0122,-0.0562,-0.0342,20.17
319071729732600,620646,-9.1729,-0.0275,-3.5533,-0.0012,-0.0696,-0.0342,20.18
319071741185100,620657,-9.1693,0.0132,-3.4540,-0.0147,-0.0867,-0.0330,20.18
319071752288300,620668,-9.1155,0.0347,-3.2782,-0.0122,-0.0990,-0.0367,20.16
319071763736500,620680,-9.0760,0.0144,-3.2148,0.0220,-0.0794,-0.0354,20.21
319071774497600,620691,-9.1214,0.0263,-3.2997,0.0318,-0.0635,-0.0367,20.21
319071786205200,620702,-9.1585,0.0179,-3.3200,0.0269,-0.0586,-0.0379,20.19
319071797596200,620713,-9.1334,-0.0227,-3.3835,0.0305,-0.0574,-0.0415,20.19
319071808419300,620725,-9.1848,-0.0311,-3.3966,0.0281,-0.0611,-0.0391,20.17
319071819590100,620736,-9.1418,0.0096,-3.3404,0.0244,-0.0684,-0.0379,20.17
319071831364100,620747,-9.1765,0.0634,-3.3057,0.0232,-0.0684,-0.0403,20.19
319071842662500,620759,-9.1502,-0.0562,-3.4110,0.0305,-0.0721,-0.0501,20.19
319071853663800,620770,-9.1717,-0.0431,-3.4050,0.0513,-0.0623,-0.0476,20.18
319071865248900,620781,-9.1573,0.0371,-3.4062,0.0428,-0.0733,-0.0452,20.16
319071876361500,620792,-9.2124,-0.1053,-3.3679,0.0489,-0.0831,-0.0513,20.16
319071887296200,620804,-9.1478,0.0144,-3.3691,0.0489,-0.0916,-0.0428,20.20
319071898228600,620815,-9.1394,-0.0096,-3.2327,0.0415,-0.0916,-0.0440,20.20
319071910068600,620826,-9.0808,0.0084,-3.2076,0.0513,-0.0831,-0.0415,20.15
319071921246200,620837,-9.1896,-0.0323,-3.2698,0.0635,-0.0635,-0.0379,20.15
319071932213100,620849,-9.1035,0.0084,-3.2530,0.0550,-0.0379,-0.0403,20.19
319071943184500,620860,-9.1418,-0.0598,-3.3320,0.0953,-0.0269,-0.0415,20.18
319071955027300,620871,-9.1992,-0.0610,-3.4361,0.0880,-0.0281,-0.0367,20.18
319071966051600,620882,-9.2674,0.0179,-3.4660,0.0611,-0.0538,-0.0330,20.21
319071977344800,620894,-9.2243,-0.0251,-3.3631,0.0428,-0.0782,-0.0367,20.21
319071988683100,620905,-9.0724,-0.0179,-3.3476,0.0599,-0.0867,-0.0452,20.17
319072000321400,620916,-9.1502,-0.0144,-3.3679,0.0550,-0.0843,-0.0415,20.17
319072011333500,620928,-9.1346,0.0072,-3.2925,0.0257,-0.0929,-0.0403,20.20
319072022361200,620939,-9.1896,-0.0479,-3.4816,0.0855,-0.0440,-0.0586,20.20
319072034147400,620950,-9.0688,-0.1388,-3.4134,0.0305,-0.0550,-0.0489,20.19
319072045158100,620961,-9.1514,-0.1328,-3.5103,0.0330,-0.0476,-0.0415,20.19
319072056410900,620973,-9.1729,-0.1639,-3.5210,0.0428,-0.0562,-0.0391,20.19
319072067765900,620984,-9.1490,-0.1029,-3.4421,0.0244,-0.0745,-0.0391,20.16
319072079302000,620995,-9.2626,-0.1651,-3.4086,0.0220,-0.0904,-0.0403,20.16
319072090157600,621006,-9.1310,-0.1089,-3.2782,0.0134,-0.1148,-0.0318,20.19
319072101229100,621018,-9.1119,-0.0491,-3.2913,0.0342,-0.1087,-0.0257,20.19
319072113232500,621029,-9.1059,0.0048,-3.1884,0.0147,-0.0990,-0.0171,20.21
319072124286100,621040,-9.1765,-0.0658,-3.3200,0.0489,-0.0819,-0.0342,20.18
319072135264900,621051,-9.1358,-0.0383,-3.2865,0.0244,-0.0916,-0.0415,20.18
319072146200400,621063,-9.1382,-0.2034,-3.2554,0.0208,-0.0819,-0.0318,20.22
319072157948400,621074,-9.1178,0.0885,-3.3260,0.0391,-0.0721,-0.0220,20.22
319072169168500,621085,-9.1155,-0.0407,-3.2148,0.0305,-0.0635,-0.0318,20.14
319072180141000,621096,-9.1585,0.0156,-3.4421,0.0635,-0.0513,-0.0342,20.14
319072191271800,621108,-9.3452,-0.1041,-3.6048,0.0476,-0.0586,-0.0354,20.16
319072203460700,621120,-9.1119,-0.1220,-3.4636,0.0208,-0.0733,-0.0293,20.18
319072214166900,621131,-9.0245,-0.1113,-3.4205,0.0171,-0.0745,-0.0208,20.18
319072225169400,621143,-9.0628,-0.0921,-3.4361,0.0244,-0.0574,-0.0147,20.19
319072237267400,621154,-9.0796,-0.0347,-3.3787,0.0049,-0.0501,-0.0086,20.19
319072248159000,621165,-9.1250,0.0096,-3.4313,0.0061,-0.0415,-0.0110,20.20
319072259286200,621176,-9.1525,-0.0431,-3.4935,0.0171,-0.0440,-0.0159,20.20
319072270364000,621188,-9.1621,0.0012,-3.4756,0.0183,-0.0550,-0.0183,20.20
319072282077100,621199,-9.1537,0.0395,-3.3200,0.0098,-0.0672,-0.0232,20.20
319072293050000,621210,-9.1178,-0.0096,-3.2279,0.0122,-0.0782,-0.0403,20.18
319072304270100,621221,-9.1131,-0.0754,-3.2530,0.0293,-0.0648,-0.0428,20.16
319072316005900,621233,-9.1394,-0.0790,-3.3368,0.0293,-0.0525,-0.0428,20.16
319072327119700,621244,-9.1514,-0.1172,-3.3667,0.0171,-0.0513,-0.0415,20.19
319072338216900,621255,-9.1669,-0.0814,-3.3643,0.0134,-0.0550,-0.0379,20.19
319072349384000,621266,-9.1992,-0.0610,-3.3093,0.0122,-0.0586,-0.0379,20.14
319072361052900,621278,-9.2219,-0.0658,-3.2830,0.0147,-0.0684,-0.0391,20.14
319072372581100,621289,-9.2076,-0.0383,-3.1585,0.0183,-0.0867,-0.0367,20.21
319072383335000,621300,-9.1801,-0.0479,-3.1609,0.0367,-0.0843,-0.0391,20.18
319072395097800,621312,-9.1837,-0.0359,-3.1968,0.0415,-0.0770,-0.0428,20.18
319072406181200,621323,-9.2423,-0.0622,-3.1837,0.0330,-0.0770,-0.0452,20.20
319072417275300,621334,-9.1597,-0.0790,-3.1214,0.0318,-0.0794,-0.0428,20.20
319072428234300,621345,-9.1932,-0.0861,-3.2219,0.0550,-0.0635,-0.0464,20.17
319072440021300,621357,-9.1549,-0.1244,-3.1789,0.0452,-0.0696,-0.0489,20.17
319072451142700,621368,-9.2375,-0.2034,-3.1825,0.0562,-0.0550,-0.0440,20.17
319072462159100,621379,-9.2770,-0.1472,-3.2387,0.0684,-0.0476,-0.0379,20.18
319072473986000,621390,-9.1131,-0.0120,-3.2674,0.0733,-0.0635,-0.0415,20.18
319072485108900,621402,-9.1430,-0.1077,-3.3045,0.0757,-0.0538,-0.0403,20.21
319072496170200,621413,-9.0700,-0.0227,-3.5258,0.1002,-0.0501,-0.0415,20.21
319072507240300,621424,-9.1729,-0.1723,-3.4074,0.0464,-0.0538,-0.0391,20.17
319072519009400,621435,-9.1107,0.0072,-3.4469,0.0513,-0.0611,-0.0354,20.17
319072530244000,621447,-9.1107,-0.1531,-3.4469,0.0672,-0.0611,-0.0428,20.19
319072541267600,621458,-9.1884,-0.0969,-3.3775,0.0770,-0.0635,-0.0452,20.19
319072552257500,621469,-9.1238,-0.2058,-3.4409,0.0452,-0.0831,-0.0367,20.21
319072564243700,621480,-9.0437,-0.2142,-3.3691,0.0269,-0.0880,-0.0244,20.20
319072575067900,621492,-9.0987,-0.2118,-3.3799,0.0220,-0.0721,-0.0159,20.20
319072586486700,621503,-9.1609,-0.1364,-3.4002,0.0195,-0.0672,-0.0086,20.19
319072598129100,621514,-9.2052,-0.1161,-3.3667,0.0037,-0.0757,-0.0061,20.19
319072609125900,621526,-9.2052,-0.0538,-3.3212,0.0098,-0.0892,-0.0049,20.18
319072620221900,621537,-9.1430,-0.0981,-3.2506,0.0244,-0.0977,-0.0122,20.18
319072631456200,621548,-9.1155,-0.1220,-3.1155,0.0269,-0.0953,-0.0171,20.15
319072643019900,621559,-9.2195,-0.1304,-3.1525,0.0183,-0.0831,-0.0171,20.18
319072654221000,621571,-9.2148,-0.1292,-3.0927,0.0195,-0.0782,-0.0159,20.18
319072665515700,621582,-9.2530,-0.0897,-3.0784,0.0293,-0.0745,-0.0208,20.20
319072676465500,621593,-9.1107,-0.0969,-2.9779,0.0403,-0.0696,-0.0257,20.20
319072688247200,621604,-9.3835,-0.1256,-3.1717,0.0733,-0.0476,-0.0281,20.17
319072699623900,621616,-9.0975,-0.0574,-3.0173,0.0476,-0.0733,-0.0330,20.17
319072710740100,621627,-9.4229,-0.2249,-3.1561,0.0599,-0.0562,-0.0342,20.19
319072722048500,621638,-9.1789,-0.0108,-3.0676,0.0513,-0.0770,-0.0208,20.19
319072733281500,621649,-9.2638,-0.0096,-3.0544,0.0684,-0.0696,-0.0269,20.18
319072744257100,621661,-9.2399,-0.0108,-3.0066,0.0745,-0.0660,-0.0293,20.17
319072755775400,621672,-9.1537,0.0706,-3.0867,0.1100,-0.0611,-0.0330,20.17
319072767101800,621683,-9.1753,-0.0826,-3.0891,0.1246,-0.0428,-0.0440,20.18
319072778358600,621694,-9.1597,0.0048,-3.2997,0.1478,-0.0367,-0.0513,20.18
319072789679100,621706,-9.2818,-0.2943,-3.2148,0.1197,-0.0330,-0.0525,20.21
319072800832000,621717,-9.2483,-0.0742,-3.5402,0.1368,-0.0489,-0.0318,20.21
319072812274800,621728,-9.0844,-0.1496,-3.3356,0.0611,-0.0892,-0.0024,20.20
319072823621400,621740,-9.3392,-0.0897,-3.3942,0.0770,-0.0831,-0.0098,20.14
319072834761600,621751,-9.0736,-0.1878,-3.2195,0.0379,-0.1026,-0.0037,20.14
319072846253200,621762,-9.1143,0.0060,-3.2925,0.0733,-0.0904,-0.0024,20.24
319072857441300,621773,-9.1023,-0.0538,-3.3033,0.0794,-0.0867,-0.0147,20.24
319072868450000,621785,-9.2387,-0.1902,-3.3942,0.0696,-0.0819,-0.0232,20.21
319072879717600,621796,-9.1406,-0.1663,-3.3416,0.0550,-0.0929,-0.0134,20.21
319072891287000,621807,-9.0592,-0.1292,-3.3081,0.0611,-0.0929,-0.0037,20.19
319072902359800,621818,-9.0999,-0.1268,-3.2722,0.1051,-0.1271,-0.0244,20.19
319072913393200,621830,-9.1729,-0.2477,-3.2853,0.0843,-0.0892,-0.0232,20.19
319072925094500,621841,-9.0915,-0.1902,-3.4301,0.1026,-0.0855,-0.0232,20.22
319072936398400,621852,-9.1023,-0.2883,-3.3332,0.0586,-0.0867,-0.0171,20.22
319072947405000,621863,-9.0903,-0.2381,-3.3799,0.0806,-0.0757,-0.0171,20.18
319072958613300,621875,-9.1202,-0.2058,-3.3846,0.0745,-0.0660,-0.0220,20.18
319072970154500,621886,-9.2638,-0.1842,-3.3428,0.0464,-0.0721,-0.0257,20.24
319072981437900,621897,-9.1765,-0.2130,-3.2674,0.0391,-0.0892,-0.0208,20.24
319072992501600,621908,-9.2351,-0.2130,-3.2399,0.0440,-0.0892,-0.0012,20.18
319073004262600,621920,-9.1980,-0.0909,-3.1633,0.0391,-0.0941,-0.0098,20.18
319073015357100,621931,-9.2853,-0.1376,-3.0891,0.0452,-0.0977,-0.0134,20.18
319073026520500,621942,-9.2327,0.0263,-3.0700,0.0550,-0.1075,-0.0098,20.18
319073037649600,621954,-9.2877,-0.0491,-3.0269,0.0855,-0.1026,-0.0318,20.18
319073049195200,621965,-9.1322,-0.0981,-3.0784,0.1002,-0.0965,-0.0391,20.20
319073060282200,621977,-9.2327,-0.1220,-3.0951,0.0794,-0.0794,-0.0305,20.20
319073071548900,621988,-9.2507,-0.0670,-3.0473,0.0782,-0.0831,-0.0220,20.21
319073082690300,622000,-9.2279,0.0012,-3.0712,0.1026,-0.0696,-0.0257,20.20
319073094266900,622011,-9.1430,-0.1352,-3.0413,0.1197,-0.0562,-0.0293,20.20
319073105445400,622022,-9.2590,-0.0766,-3.2710,0.1503,-0.0379,-0.0354,20.24
319073116705200,622033,-9.1226,-0.2022,-3.1896,0.1038,-0.0525,-0.0342,20.24
319073128259700,622045,-9.2291,-0.1412,-3.2949,0.1124,-0.0501,-0.0330,20.17
319073139553300,622056,-9.2387,-0.2668,-3.3535,0.1075,-0.0525,-0.0330,20.17
319073150509000,622067,-9.1968,-0.1579,-3.2674,0.0843,-0.0757,-0.0232,20.18
319073161651300,622078,-9.3069,-0.1914,-3.4014,0.0721,-0.0782,-0.0244,20.18
319073173341000,622090,-9.2136,-0.2441,-3.0939,0.0586,-0.1026,-0.0159,20.17
319073184396700,622101,-9.0712,-0.1783,-3.2399,0.0831,-0.1051,0.0037,20.17
319073195701900,622112,-9.2351,-0.2261,-3.2327,0.0977,-0.0904,0.0012,20.17
319073207245400,622124,-9.1693,-0.1304,-3.2459,0.0819,-0.0880,-0.0037,20.21
319073218407000,622135,-9.1107,-0.1986,-3.1920,0.0648,-0.0855,-0.0049,20.21
319073229584200,622146,-9.1466,-0.1352,-3.2566,0.1002,-0.0721,-0.0159,20.20
319073240648900,622157,-9.3428,-0.1747,-3.3224,0.1026,-0.0623,-0.0281,20.20
319073252325100,622169,-9.1274,-0.2261,-3.3200,0.0965,-0.0635,-0.0391,20.20
319073263572300,622180,-9.1980,-0.2441,-3.3643,0.0867,-0.0562,-0.0379,20.24
319073274847400,622191,-9.1119,-0.2871,-3.3882,0.0696,-0.0635,-0.0452,20.24
319073286085100,622202,-9.1394,-0.4379,-3.4002,0.0464,-0.0623,-0.0354,20.20
319073297292700,622214,-9.2686,-0.2847,-3.4792,0.0562,-0.0660,-0.0159,20.20
319073308451600,622225,-9.1442,-0.1998,-3.2267,0.0110,-0.1038,-0.0122,20.23
319073319536700,622236,-9.1430,-0.2022,-3.1513,0.0208,-0.0965,-0.0159,20.23
319073331289600,622247,-9.1549,-0.1627,-3.0855,0.0599,-0.0819,-0.0244,20.20
319073342267200,622259,-9.2255,-0.0072,-3.1167,0.0464,-0.0562,-0.0342,20.16
319073354026600,622270,-9.2315,-0.1938,-3.0245,0.0501,-0.0574,-0.0525,20.16
319073365214200,622281,-9.3188,-0.0778,-3.1561,0.0794,-0.0489,-0.0489,20.25
319073376218000,622292,-9.1813,-0.2082,-3.0796,0.0684,-0.0611,-0.0440,20.25
319073387388500,622304,-9.2985,-0.1400,-3.1884,0.0855,-0.0525,-0.0367,20.20
319073398513500,622315,-9.1621,-0.0957,-3.1143,0.0806,-0.0721,-0.0379,20.20
319073410146400,622326,-9.3595,-0.3757,-3.2076,0.0721,-0.0684,-0.0318,20.20
319073421310700,622338,-9.2818,-0.2716,-3.1346,0.0696,-0.0843,-0.0086,20.20
319073432486700,622349,-9.1944,-0.1627,-3.0389,0.0782,-0.0489,-0.0318,20.22
319073443981400,622360,-9.2842,-0.3757,-3.0987,0.0929,-0.0415,-0.0391,20.21
319073455198900,622371,-9.3428,-0.2847,-3.1621,0.1087,-0.0464,-0.0232,20.21
319073466499500,622383,-9.1896,-0.2189,-3.0712,0.0892,-0.0733,-0.0147,20.23
319073477446000,622394,-9.3763,-0.3194,-3.0281,0.0855,-0.0745,-0.0024,20.23
319073489298400,622405,-9.2243,-0.1328,-2.9862,0.0965,-0.0892,-0.0012,20.20
319073500540200,622416,-9.3236,-0.2967,-2.9372,0.0855,-0.0819,-0.0049,20.20
319073511668000,622428,-9.3392,-0.2871,-2.8403,0.1038,-0.0831,-0.0159,20.24
319073522719000,622439,-9.1382,-0.1232,-2.9085,0.1087,-0.0733,0.0061,20.20
319073534818500,622450,-9.2566,-0.2166,-2.9563,0.1283,-0.0562,0.0037,20.20
319073545475700,622461,-9.2662,-0.1543,-2.9192,0.1234,-0.0574,0.0037,20.20
319073557372300,622473,-9.2650,-0.2046,-2.9874,0.1368,-0.0501,0.0037,20.20
319073568126600,622484,-9.2542,-0.2871,-3.1837,0.1527,-0.0403,-0.0037,20.20
319073579274100,622495,-9.2806,-0.3458,-3.1669,0.1197,-0.0440,0.0098,20.20
319073591326300,622507,-9.2794,-0.2716,-3.1693,0.1100,-0.0672,0.0244,20.21
319073601740100,622518,-9.1693,-0.1436,-3.1095,0.1368,-0.0880,0.0073,20.21
319073613289400,622529,-9.1884,-0.2692,-3.0544,0.0953,-0.0770,0.0086,20.18
319073624305900,622540,-9.2590,-0.1962,-3.1011,0.1246,-0.0745,0.0049,20.22
319073635482800,622552,-9.2004,-0.2130,-3.0772,0.1124,-0.0660,0.0098,20.22
319073646821700,622563,-9.2303,-0.1053,-3.0843,0.1173,-0.0623,0.0134,20.21
319073658264000,622574,-9.2889,-0.2082,-3.0939,0.1197,-0.0599,0.0073,20.21
319073669706100,622585,-9.0915,-0.2297,-3.0951,0.1295,-0.0611,0.0269,20.22
319073681065500,622597,-9.2028,-0.0933,-3.3069,0.1478,-0.0513,0.0318,20.22
319073691670800,622608,-9.3141,-0.2955,-3.3763,0.1600,-0.0476,0.0086,20.22
319073703520300,622619,-9.0365,-0.2764,-3.3141,0.1283,-0.0757,0.0183,20.22
319073714490400,622630,-9.3799,-0.3206,-3.4050,0.0953,-0.0696,0.0305,20.22
319073725648700,622642,-9.1633,-0.1316,-3.1920,0.1075,-0.0990,0.0220,20.20
319073737332400,622653,-9.0903,-0.2895,-3.2004,0.0770,-0.1026,0.0281,20.20
319073748498700,622664,-9.1729,-0.1041,-3.0927,0.0953,-0.0831,0.0342,20.22
319073759442600,622675,-9.1466,-0.0921,-3.1837,0.1368,-0.0806,-0.0049,20.22
319073770770900,622687,-9.1119,-0.4020,-3.4062,0.0929,-0.0648,-0.0073,20.18
319073782236500,622698,-9.1442,-0.2871,-3.2291,0.1002,-0.0672,-0.0098,20.18
319073793394500,622709,-9.2662,-0.3601,-3.3954,0.1124,-0.0586,-0.0183,20.18
319073804650800,622721,-9.2830,-0.2967,-3.2363,0.0696,-0.0819,0.0086,20.20
319073815803400,622732,-9.1825,-0.1244,-3.1848,0.0904,-0.0916,0.0012,20.20
319073827665300,622743,-9.1167,-0.3099,-3.1262,0.1210,-0.0941,-0.0232,20.20
319073838540600,622754,-9.1992,-0.2369,-3.2291,0.1014,-0.0831,-0.0183,20.20
319073849818100,622766,-9.0975,-0.3972,-3.0808,0.0941,-0.0794,-0.0159,20.22
319073861362000,622777,-9.2842,-0.3769,-3.2734,0.1075,-0.0562,-0.0147,20.22
319073872436000,622789,-9.1274,-0.2955,-3.0640,0.0525,-0.0770,0.0073,20.22
319073883463800,622800,-9.2076,-0.2118,-3.1011,0.0916,-0.0476,-0.0037,20.21
319073894919000,622812,-9.3380,-0.1424,-3.2040,0.0806,-0.0501,-0.0147,20.21
319073906262600,622823,-9.2554,-0.2692,-2.9121,0.0342,-0.0709,-0.0195,20.23
319073917398500,622834,-9.3380,-0.1065,-3.0927,0.0990,-0.0635,-0.0318,20.23
319073928552700,622845,-9.2471,-0.3170,-2.8834,0.0819,-0.0892,-0.0244,20.18
319073940152700,622857,-9.2255,-0.1974,-2.9587,0.0904,-0.0757,0.0000,20.18
319073951208000,622868,-9.2818,-0.0993,-2.8845,0.1185,-0.0660,-0.0305,20.21
319073962358600,622879,-9.3488,-0.2680,-2.7829,0.1063,-0.0440,-0.0281,20.21
319073973624900,622891,-9.2818,-0.0921,-3.0353,0.1588,-0.0428,-0.0330,20.21
319073985361600,622902,-9.3224,-0.3936,-2.8582,0.1246,-0.0513,-0.0195,20.23
319073996363000,622913,-9.2710,-0.1113,-3.0473,0.1552,-0.0562,-0.0061,20.23
319074007652100,622924,-9.3236,-0.2955,-2.9145,0.1503,-0.0538,-0.0098,20.20
319074019185700,622936,-9.2243,-0.2034,-3.0353,0.1649,-0.0501,-0.0073,20.20
319074030462400,622947,-9.2578,-0.2477,-3.0030,0.1503,-0.0525,-0.0061,20.16
319074041456300,622958,-9.2710,-0.1950,-3.1298,0.1784,-0.0501,0.0000,20.16
319074052495300,622969,-9.2004,-0.2979,-3.0377,0.1784,-0.0550,-0.0049,20.20
319074064363600,622981,-9.3607,-0.2381,-3.1681,0.1869,-0.0538,0.0049,20.19
319074075285300,622992,-9.2315,-0.2273,-3.0185,0.1796,-0.0660,0.0024,20.19
319074086584000,623003,-9.1956,-0.2548,-3.1825,0.1845,-0.0599,-0.0012,20.21
319074098066700,623014,-9.1765,-0.3159,-3.1143,0.1747,-0.0611,-0.0024,20.21
319074109259000,623026,-9.3428,-0.3398,-3.2566,0.1600,-0.0574,0.0000,20.22
319074120882400,623037,-9.1023,-0.3302,-3.1334,0.1564,-0.0757,0.0073,20.22
319074131630100,623048,-9.0497,-0.4439,-3.0808,0.1503,-0.0831,0.0037,20.19
319074143237800,623059,-9.2554,-0.3733,-3.4098,0.1588,-0.0660,0.0061,20.20
319074154318400,623071,-9.1490,-0.3829,-3.1238,0.1368,-0.0880,0.0086,20.20
319074165411000,623082,-9.0832,-0.3326,-3.1382,0.1344,-0.0635,0.0122,20.18
319074176721200,623093,-9.1968,-0.1627,-3.3212,0.1552,-0.0525,0.0024,20.18
319074188473100,623105,-9.2746,-0.3745,-3.1107,0.1442,-0.0648,-0.0208,20.23
319074199917100,623116,-9.1143,-0.3900,-3.2566,0.1491,-0.0648,-0.0086,20.23
319074211202400,623127,-9.2195,-0.3434,-3.1250,0.1454,-0.0660,-0.0012,20.22
319074222130400,623138,-9.0867,-0.2309,-3.1071,0.1026,-0.0586,0.0122,20.20
319074233393500,623150,-9.2028,-0.2405,-3.2530,0.1319,-0.0440,-0.0183,20.20
319074244492300,623161,-9.1573,-0.3410,-3.1872,0.0977,-0.0452,-0.0281,20.20
319074255528400,623172,-9.2614,-0.2632,-3.2112,0.1319,-0.0464,-0.0452,20.20
319074267274800,623183,-9.1561,-0.3063,-3.2495,0.1148,-0.0648,-0.0513,20.24
319074278435800,623195,-9.2507,-0.5180,-3.0724,0.1246,-0.0672,-0.0428,20.24
319074289567800,623206,-9.2124,-0.2130,-3.2255,0.1283,-0.0733,-0.0159,20.21
319074301401200,623217,-9.2590,-0.1639,-3.0173,0.1210,-0.0672,-0.0232,20.21
319074312148500,623228,-9.2351,-0.2429,-2.8606,0.1002,-0.0806,-0.0073,20.21
319074323727300,623240,-9.2435,-0.2393,-2.9767,0.1393,-0.0745,-0.0012,20.26
319074334553300,623251,-9.3978,-0.3996,-2.9575,0.1393,-0.0611,0.0037,20.26
319074346730700,623262,-9.1669,-0.1890,-3.0592,0.1368,-0.0770,0.0122,20.24
319074357445000,623273,-9.2160,-0.4223,-2.9025,0.1246,-0.0648,0.0037,20.24
319074368688600,623285,-9.2483,-0.3194,-3.2207,0.1735,-0.0489,-0.0195,20.22
319074380077100,623296,-9.2662,-0.4786,-2.9707,0.1124,-0.0586,-0.0232,20.22
319074391425300,623307,-9.2925,-0.3278,-2.9551,0.1173,-0.0733,-0.0159,20.23
319074402657100,623319,-9.2710,-0.2847,-2.8845,0.1026,-0.0806,-0.0171,20.23
319074413766800,623330,-9.3272,-0.4128,-2.7302,0.1503,-0.0843,-0.0293,20.23
319074425223200,623341,-9.4313,-0.5121,-2.9192,0.1478,-0.0709,0.0024,20.23
319074436525600,623352,-9.1059,-0.1998,-2.7661,0.1454,-0.0819,0.0183,20.23
319074447644600,623364,-9.4038,-0.4570,-2.8451,0.1515,-0.0635,-0.0012,20.20
319074459243400,623375,-9.2818,-0.2991,-2.6776,0.1466,-0.0684,0.0183,20.20
319074470454300,623386,-9.4241,-0.2201,-2.8463,0.1820,-0.0562,0.0024,20.20
319074481434200,623397,-9.3428,-0.4116,-2.7793,0.1869,-0.0489,0.0159,20.25
319074492464500,623409,-9.3787,-0.3565,-3.0628,0.2150,-0.0415,0.0244,20.25
319074504236400,623420,-9.1872,-0.3051,-2.8175,0.2016,-0.0684,0.0379,20.22
319074515525400,623431,-9.2770,-0.3781,-3.0461,0.2162,-0.0391,0.0342,20.22
319074526835600,623442,-9.2997,-0.1854,-3.0353,0.2321,-0.0464,0.0269,20.22
319074538188100,623454,-9.2650,-0.3829,-3.0030,0.1979,-0.0562,0.0244,20.22
319074549459000,623465,-9.1490,-0.3529,-3.0365,0.2199,-0.0599,0.0391,20.23
319074560396900,623476,-9.2710,-0.0060,-3.0449,0.2456,-0.0452,0.0318,20.23
319074572091200,623488,-9.2207,-0.4618,-3.1573,0.2089,-0.0623,0.0293,20.27
319074583226100,623500,-9.1059,-0.3541,-3.0209,0.2370,-0.0599,0.0318,20.23
319074594189900,623511,-9.2124,-0.3649,-3.3009,0.1955,-0.0440,0.0379,20.23
319074605744700,623522,-9.1502,-0.3482,-3.1214,0.1723,-0.0489,0.0379,20.22
319074616640400,623534,-9.4768,-0.3290,-3.2961,0.2028,-0.0489,0.0134,20.22
319074628253300,623545,-9.0628,-0.4654,-3.1561,0.1930,-0.0648,0.0098,20.20
319074639341400,623556,-9.2782,-0.3972,-3.2865,0.1955,-0.0599,0.0147,20.20
319074650753400,623567,-9.1107,-0.4798,-3.1645,0.1710,-0.0782,0.0318,20.23
319074662031500,623579,-9.1131,-0.3302,-3.2530,0.1918,-0.0855,0.0403,20.25
319074673356800,623590,-9.2734,-0.3745,-3.2566,0.1833,-0.0684,0.0257,20.25
319074684594600,623601,-9.0497,-0.3817,-3.1597,0.1600,-0.0660,0.0281,20.20
319074695658900,623612,-9.2040,-0.3637,-3.3105,0.1564,-0.0501,0.0257,20.20
319074707125400,623624,-9.1717,-0.2417,-3.2207,0.1515,-0.0684,0.0257,20.27
319074718658100,623635,-9.1848,-0.3912,-3.2459,0.1576,-0.0684,0.0049,20.27
319074729841300,623646,-9.2375,-0.4104,-3.2375,0.1857,-0.0819,0.0000,20.27
319074740629200,623657,-9.2507,-0.3541,-3.1896,0.1552,-0.0843,0.0183,20.27
319074752364400,623669,-9.1226,-0.3745,-3.2399,0.1454,-0.0990,0.0244,20.21
319074763538600,623680,-9.1932,-0.4128,-3.1609,0.1344,-0.0977,0.0208,20.17
319074774492100,623691,-9.2830,-0.3984,-3.1621,0.1515,-0.0880,0.0098,20.17
319074786180700,623703,-8.9432,-0.2632,-3.0748,0.1197,-0.0819,0.0049,20.25
319074797323300,623714,-9.5821,-0.4056,-3.1645,0.0892,-0.0391,-0.0183,20.25
319074808717200,623725,-9.1011,-0.3374,-3.3117,0.1161,-0.0757,-0.0147,20.26
319074820504000,623736,-9.2136,-0.5743,-3.1286,0.0953,-0.1087,0.0024,20.26
319074831115700,623748,-9.2375,-0.1460,-3.1920,0.1197,-0.0635,0.0110,20.20
319074842282100,623759,-9.1286,-0.4977,-2.9862,0.0977,-0.0709,-0.0183,20.27
319074853842900,623770,-9.2566,-0.4845,-3.1573,0.1246,-0.0550,-0.0208,20.27
319074865253800,623781,-9.3021,-0.3793,-3.0843,0.1258,-0.0513,-0.0208,20.24
319074876408100,623793,-9.2327,-0.3027,-3.1848,0.1148,-0.0611,-0.0305,20.24
319074887791200,623804,-9.1597,-0.6114,-3.0353,0.0953,-0.0757,-0.0354,20.23
319074898910600,623815,-9.3846,-0.4355,-3.0915,0.1161,-0.0733,-0.0159,20.23
319074910343300,623826,-9.1705,-0.6042,-3.0891,0.1100,-0.0855,-0.0073,20.21
319074921621500,623838,-9.3284,-0.5312,-2.9647,0.0977,-0.0550,-0.0171,20.20
319074932576500,623849,-9.2004,-0.0682,-3.1250,0.1356,-0.0696,-0.0293,20.20
319074944192700,623860,-9.4732,-0.6173,-2.9539,0.0990,-0.0806,-0.0513,20.23
319074955404900,623872,-9.1729,-0.4152,-2.8199,0.1222,-0.0977,-0.0183,20.23
319074966640800,623883,-9.3751,-0.3733,-2.9599,0.1222,-0.0806,0.0024,20.23
319074977355100,623894,-9.2913,-0.3757,-2.9240,0.1258,-0.1002,0.0195,20.23
319074989566200,623905,-9.2985,-0.3781,-2.7637,0.1332,-0.0990,0.0183,20.26
319075000358900,623917,-9.1801,-0.2955,-2.9180,0.1429,-0.0806,0.0244,20.26
319075011416000,623928,-9.4851,-0.3805,-3.0915,0.1649,-0.0501,-0.0147,20.22
319075023118100,623939,-9.2231,-0.5109,-2.9611,0.1112,-0.0867,-0.0012,20.21
319075034325600,623950,-9.4026,-0.6389,-2.7434,0.1210,-0.0794,0.0232,20.21
319075045327000,623962,-9.2662,-0.1292,-3.0544,0.1649,-0.0929,0.0379,20.23
319075056657200,623973,-9.2638,-0.5791,-2.6991,0.1478,-0.0819,0.0086,20.23
319075068460400,623984,-9.3476,-0.4152,-3.1537,0.1906,-0.0562,-0.0049,20.24
319075079403900,623995,-9.1633,-0.5145,-2.8391,0.0953,-0.0806,0.0293,20.24
319075090825100,624007,-9.1932,-0.3386,-2.6512,0.1442,-0.0745,-0.0037,20.25
319075102199800,624018,-9.5797,-0.5097,-2.9898,0.1283,-0.0367,-0.0122,20.27
319075113341300,624029,-9.2650,-0.3900,-2.9527,0.1820,-0.0953,0.0073,20.27
319075124396800,624040,-9.3691,-0.4881,-2.6728,0.1234,-0.1136,0.0293,20.23
319075135612300,624052,-9.3224,-0.3996,-2.7972,0.1747,-0.0965,0.0305,20.23
319075147291800,624063,-9.3224,-0.3613,-2.8068,0.1588,-0.0929,0.0305,20.23
319075158431200,624074,-9.2842,-0.4881,-2.9731,0.1808,-0.0806,0.0110,20.23
319075169713700,624086,-9.1717,-0.4403,-2.9085,0.1833,-0.0843,0.0049,20.25
319075181178800,624097,-9.3117,-0.4917,-2.9360,0.1698,-0.0745,0.0073,20.25
319075192181500,624108,-9.3236,-0.3852,-2.8235,0.1637,-0.0880,0.0208,20.20
319075203500900,624119,-9.1896,-0.5827,-2.8343,0.1674,-0.0635,0.0318,20.21
319075214862900,624131,-9.3105,-0.2094,-3.0867,0.2150,-0.0721,0.0281,20.21
319075226217500,624143,-9.2865,-0.5982,-2.8379,0.1344,-0.0867,0.0293,20.21
319075237422000,624154,-9.3069,-0.4128,-2.9097,0.1930,-0.0709,0.0232,20.21
319075248422500,624165,-9.2782,-0.1795,-2.9348,0.1784,-0.0709,0.0183,20.25
319075260084900,624177,-9.2291,-0.4164,-2.9420,0.1991,-0.0770,-0.0110,20.25
319075271447200,624188,-9.1920,-0.3852,-2.9049,0.2309,-0.0648,0.0183,20.29
319075282736800,624199,-9.2985,-0.4738,-2.9683,0.1943,-0.0452,0.0330,20.25
319075293604600,624210,-9.3021,-0.2692,-3.0305,0.2126,-0.0525,0.0330,20.25
319075305237800,624222,-9.2853,-0.5252,-2.8439,0.1796,-0.0501,0.0330,20.25
319075316554700,624233,-9.2172,-0.2943,-3.0784,0.2309,-0.0501,0.0354,20.25
319075327621700,624244,-9.3763,-0.5707,-3.1406,0.2028,-0.0452,0.0318,20.20
319075338898800,624256,-9.1813,-0.3649,-3.0592,0.2089,-0.0770,0.0354,20.20
319075350648500,624267,-9.1561,-0.4678,-3.0628,0.1625,-0.0794,0.0501,20.24
319075361519700,624278,-9.3057,-0.3829,-3.1083,0.1833,-0.0696,0.0428,20.16
319075372937600,624289,-9.2219,-0.3482,-2.9635,0.1454,-0.0855,0.0452,20.16
319075384284200,624301,-9.2782,-0.4104,-2.9575,0.1723,-0.0782,0.0281,20.22
319075395439000,624312,-9.2399,-0.3781,-3.0126,0.1881,-0.0745,0.0257,20.22
319075406448200,624323,-9.2279,-0.4403,-2.9013,0.1686,-0.0672,0.0318,20.20
319075417690600,624334,-9.2303,-0.4259,-2.9922,0.1918,-0.0501,0.0293,20.20
319075429604400,624346,-9.2363,-0.4319,-3.0341,0.1772,-0.0501,0.0379,20.23
319075440462400,624357,-9.2219,-0.3697,-3.0532,0.1735,-0.0525,0.0183,20.23
319075451777300,624368,-9.3535,-0.5527,-3.0772,0.1723,-0.0464,0.0122,20.21
319075463631800,624379,-9.2925,-0.3661,-3.1083,0.1637,-0.0684,0.0232,20.24
319075474328900,624391,-9.2758,-0.4199,-2.9755,0.1429,-0.0916,0.0244,20.24
319075486279900,624402,-9.1633,-0.5647,-2.9288,0.1454,-0.0770,0.0257,20.23
319075496613800,624413,-9.2698,-0.2812,-2.9886,0.1600,-0.0635,0.0220,20.23
319075508126300,624424,-9.3236,-0.4343,-2.9623,0.1038,-0.0623,0.0257,20.25
319075519481100,624436,-9.3763,-0.3422,-2.8917,0.1356,-0.0721,0.0281,20.25
319075530983400,624447,-9.3954,-0.4570,-2.9264,0.1833,-0.0806,0.0452,20.20
319075542157800,624458,-9.2112,-0.4068,-2.9874,0.1906,-0.0892,0.0464,20.23
319075553331400,624470,-9.3595,-0.6054,-3.2219,0.1747,-0.0977,0.0428,20.23
319075564606600,624481,-9.1262,-0.5862,-3.0257,0.1454,-0.1197,0.0550,20.19
319075575294400,624492,-9.1956,-0.5671,-3.0628,0.1478,-0.1038,0.0501,20.19
319075587421300,624503,-9.4768,-0.3709,-3.2327,0.1246,-0.1148,0.0452,20.24
319075598347300,624515,-9.1011,-0.5204,-2.6764,0.0904,-0.1478,0.0330,20.24
319075609583300,624526,-9.2435,-0.4666,-2.8690,0.1234,-0.1087,0.0269,20.21
319075620835000,624537,-9.1729,-0.2477,-2.8654,0.1527,-0.1307,0.0110,20.22
319075632361700,624548,-9.2949,-0.5838,-2.6680,0.1087,-0.1197,0.0086,20.22
319075643483600,624560,-9.2794,-0.3218,-2.7206,0.1271,-0.1014,0.0220,20.21
319075654801900,624571,-9.3081,-0.3972,-2.7721,0.1234,-0.0843,0.0342,20.21
319075666211300,624582,-9.3858,-0.4056,-2.7577,0.1674,-0.0733,0.0305,20.24
319075677281800,624593,-9.2530,-0.3003,-2.7805,0.1723,-0.0672,0.0281,20.24
319075688556500,624605,-9.4110,-0.4104,-2.8606,0.1735,-0.0574,0.0147,20.22
319075699851100,624616,-9.2782,-0.2632,-2.8654,0.1527,-0.0733,0.0318,20.22
319075711153000,624627,-9.3392,-0.2572,-2.8714,0.1772,-0.0770,0.0086,20.25
319075722495200,624638,-9.3787,-0.4917,-2.7039,0.1588,-0.0831,0.0098,20.21
319075733702000,624650,-9.3799,-0.4020,-2.8128,0.2089,-0.0843,0.0330,20.21
319075744917900,624661,-9.3858,-0.3517,-2.7410,0.1808,-0.0916,0.0611,20.25
319075756295000,624672,-9.0927,-0.2871,-2.5531,0.1991,-0.0880,0.0635,20.25
319075767539200,624684,-9.3500,-0.2931,-2.8845,0.2370,-0.0476,0.0318,20.20
319075778541300,624695,-9.3476,-0.4702,-2.8175,0.2101,-0.0513,0.0293,20.20
319075790197300,624706,-9.2925,-0.4128,-2.8487,0.2004,-0.0476,0.0391,20.24
319075801456700,624717,-9.3440,-0.3589,-3.0102,0.2199,-0.0538,0.0354,20.20
319075812531800,624729,-9.2052,-0.4917,-2.9300,0.2065,-0.0696,0.0195,20.20
319075823579200,624740,-9.3787,-0.5360,-3.0341,0.2162,-0.0672,0.0110,20.18
319075835304200,624751,-9.3153,-0.4893,-2.9755,0.1906,-0.0819,0.0244,20.18
319075846362800,624762,-9.3021,-0.5013,-3.0173,0.1674,-0.0941,0.0403,20.20
319075857555300,624774,-9.2028,-0.4522,-2.8905,0.1552,-0.1014,0.0586,20.20
319075868931100,624785,-9.2997,-0.3577,-2.8834,0.1686,-0.0855,0.0562,20.25
319075880407000,624796,-9.2411,-0.2716,-2.7852,0.1698,-0.0770,0.0318,20.25
319075891405100,624807,-9.2853,-0.5192,-2.9886,0.1943,-0.0476,0.0147,20.23
319075902627400,624819,-9.1801,-0.4104,-2.9228,0.1857,-0.0550,0.0257,20.21
319075914271700,624830,-9.2853,-0.4606,-3.0233,0.1869,-0.0452,0.0208,20.21
319075925691500,624841,-9.3667,-0.4534,-3.0150,0.1747,-0.0538,0.0281,20.21
319075936511700,624852,-9.2303,-0.5001,-3.0209,0.1759,-0.0696,0.0208,20.21
319075947615800,624864,-9.2997,-0.5228,-2.9695,0.1576,-0.0721,0.0318,20.21
319075959177400,624875,-9.3368,-0.4211,-3.0724,0.1613,-0.0696,0.0342,20.21
319075970471500,624886,-9.2626,-0.6640,-2.7984,0.1527,-0.0831,0.0171,20.20
319075981569300,624898,-9.4038,-0.3290,-3.0233,0.1381,-0.0696,0.0440,20.21
319075993137600,624909,-9.2172,-0.2357,-2.7350,0.1381,-0.0843,0.0367,20.21
319076004296300,624920,-9.3476,-0.5157,-2.8714,0.1356,-0.0660,0.0342,20.19
319076015267300,624931,-9.2148,-0.1316,-2.7422,0.1478,-0.0709,0.0415,20.19
319076026432100,624943,-9.3428,-0.4199,-2.9862,0.1649,-0.0367,-0.0049,20.22
319076038246000,624954,-9.3153,-0.3159,-2.9109,0.1356,-0.0538,-0.0086,20.22
319076049413700,624965,-9.4516,-0.4379,-2.5196,0.1100,-0.0635,-0.0086,20.18
319076060563400,624977,-9.4002,-0.2835,-2.8283,0.1222,-0.0831,0.0171,20.20
319076072182300,624989,-9.3512,-0.3900,-2.6668,0.1381,-0.0867,0.0220,20.20
319076083493500,625000,-9.3679,-0.3290,-2.8235,0.1710,-0.0916,0.0281,20.21
319076094662300,625011,-9.2112,-0.4977,-2.6548,0.1295,-0.0916,0.0489,20.21
319076105980100,625022,-9.0592,-0.3553,-2.7852,0.1600,-0.0684,0.0464,20.21
319076117225100,625034,-9.5510,-0.2512,-2.7350,0.1796,-0.0195,-0.0024,20.21
319076128370000,625045,-9.4373,-0.4822,-3.2506,0.1674,-0.0293,-0.0257,20.20
319076139706200,625056,-9.4349,-0.5049,-2.7027,0.1051,-0.0990,0.0073,20.20
319076151143300,625068,-9.4253,-0.1364,-2.8104,0.1185,-0.0611,0.0195,20.23
319076162409700,625079,-9.3081,-0.4032,-2.5125,0.0941,-0.0757,0.0257,20.24
319076173412200,625090,-9.3320,-0.3147,-2.9276,0.1405,-0.0562,0.0159,20.24
319076184722100,625101,-9.2375,-0.3529,-2.7446,0.1283,-0.0586,0.0110,20.20
319076196263300,625113,-9.0820,-0.3685,-2.6668,0.1784,-0.0269,-0.0086,20.20
319076207407100,625124,-9.7101,-0.3350,-3.2124,0.1967,0.0073,-0.0232,20.20
319076218618600,625135,-9.1860,-0.4175,-2.9300,0.1576,-0.0684,-0.0037,20.20
319076229534400,625146,-9.3655,-0.3326,-2.9097,0.1393,-0.0696,0.0061,20.21
319076241394300,625158,-9.2734,-0.4283,-2.8905,0.1381,-0.0452,0.0024,20.22
319076252450100,625169,-9.3667,-0.5755,-3.0724,0.1307,-0.0550,0.0037,20.22
319076263640400,625180,-9.2937,-0.4259,-2.9384,0.1075,-0.0892,0.0293,20.15
319076275213300,625191,-9.2100,-0.3769,-2.7852,0.1014,-0.0929,0.0293,20.15
319076286240000,625203,-9.2794,-0.3864,-2.9001,0.1307,-0.0709,0.0147,20.20
319076297495300,625214,-9.1525,-0.3505,-2.8104,0.1197,-0.0525,0.0049,20.20
319076308388200,625225,-9.2818,-0.2907,-2.8463,0.1393,-0.0330,-0.0171,20.21
319076320160100,625236,-9.4481,-0.3876,-2.8499,0.1381,-0.0379,-0.0147,20.21
319076331610800,625248,-9.1310,-0.3829,-2.7541,0.1246,-0.0452,0.0073,20.21
319076342179500,625259,-9.5402,-0.3075,-3.0209,0.1662,-0.0257,-0.0049,20.19
319076354034300,625270,-9.2040,-0.3733,-2.7577,0.1234,-0.0635,0.0012,20.19
319076365286900,625282,-9.2602,-0.4953,-2.8857,0.1381,-0.0452,0.0000,20.19
319076376218100,625293,-9.3332,-0.4175,-2.9480,0.1625,-0.0281,0.0000,20.19
319076387757300,625304,-9.3392,-0.4092,-2.9803,0.1210,-0.0464,0.0061,20.23
319076399141300,625315,-9.4193,-0.4499,-2.8510,0.1002,-0.0599,0.0086,20.23
319076410285600,625327,-9.3571,-0.3170,-2.5986,0.0843,-0.1038,0.0293,20.21
319076421542600,625338,-9.3284,-0.3278,-2.6345,0.1100,-0.1002,0.0367,20.18
319076432550700,625349,-9.4409,-0.3290,-2.7159,0.1258,-0.0806,0.0367,20.18
319076444340400,625360,-9.1119,-0.2907,-2.6393,0.1185,-0.0843,0.0403,20.20
319076455472400,625372,-9.2638,-0.3960,-2.7625,0.1356,-0.0464,0.0305,20.20
319076466549500,625383,-9.1490,-0.4319,-3.0485,0.1845,-0.0159,0.0049,20.20
319076477560200,625394,-9.3188,-0.5575,-2.9862,0.1454,-0.0012,-0.0061,20.20
319076489222300,625405,-9.3799,-0.4319,-2.7613,0.1307,-0.0134,-0.0012,20.22
319076500476400,625417,-9.3404,-0.5444,-3.1262,0.1381,-0.0367,0.0110,20.25
319076511714900,625428,-9.2806,-0.4391,-3.0951,0.1002,-0.0635,0.0220,20.25
319076523282600,625439,-9.2554,-0.4893,-3.0245,0.0562,-0.0831,0.0195,20.21
319076534344300,625451,-9.0509,-0.5324,-2.9109,0.0757,-0.0794,0.0134,20.21
319076545376900,625462,-9.6048,-0.5085,-3.0173,0.0831,-0.0428,0.0037,20.19
319076556691900,625473,-8.9922,-0.2046,-3.0461,0.0965,-0.0721,0.0159,20.19
319076568037600,625484,-9.3117,-0.4834,-2.8187,0.0440,-0.0550,0.0024,20.22
319076579251400,625496,-9.3799,-0.0048,-2.7996,0.0819,-0.0403,0.0037,20.22
319076590414900,625507,-9.2758,-0.4534,-3.0592,0.1271,-0.0171,-0.0318,20.20
319076601659000,625518,-9.3165,-0.3625,-3.1466,0.1234,-0.0208,-0.0257,20.23
319076613425000,625529,-9.1956,-0.3625,-3.0891,0.0672,-0.0415,-0.0208,20.23
319076624632400,625541,-9.2303,-0.5109,-3.1992,0.0819,-0.0440,-0.0354,20.20
319076635735500,625552,-9.1178,-0.5456,-3.1155,0.0696,-0.0452,-0.0354,20.20
319076647148000,625563,-9.2507,-0.5252,-3.2411,0.0538,-0.0318,-0.0379,20.21
319076658252200,625574,-9.2889,-0.4116,-3.0425,0.0086,-0.0452,-0.0305,20.21
319076669720500,625586,-9.3500,-0.3697,-2.9348,0.0061,-0.0562,-0.0318,20.20
319076680660500,625597,-9.4158,-0.3087,-2.8331,0.0024,-0.0855,-0.0232,20.20
319076692473400,625608,-9.4421,-0.2632,-2.6871,-0.0024,-0.1038,-0.0195,20.20
319076703585000,625619,-9.3978,-0.2704,-2.6010,0.0208,-0.1161,-0.0183,20.22
319076714845700,625631,-9.3978,-0.2883,-2.5627,0.0574,-0.1161,-0.0195,20.22
319076726202000,625642,-9.2542,-0.4068,-2.6381,0.0733,-0.1026,-0.0195,20.23
319076737406600,625653,-9.2195,-0.4104,-2.6883,0.0660,-0.0745,-0.0208,20.23
319076748609600,625665,-9.2937,-0.3529,-2.7541,0.0550,-0.0440,-0.0293,20.18
319076759720700,625676,-9.3787,-0.4175,-2.7601,0.0342,-0.0428,-0.0232,20.18
319076771426600,625687,-9.4110,-0.4092,-2.7817,0.0660,-0.0538,-0.0110,20.18
319076782658800,625698,-9.3631,-0.4044,-2.7840,0.0538,-0.0635,0.0012,20.25
319076793656400,625710,-9.2459,-0.4152,-2.8642,0.0525,-0.0660,0.0037,20.25
319076805278600,625721,-9.1920,-0.4295,-2.8810,0.0464,-0.0550,-0.0024,20.24
319076816406100,625732,-9.2375,-0.4953,-3.0640,0.0513,-0.0293,-0.0171,20.24
319076827546600,625743,-9.2219,-0.4965,-3.1537,0.0281,-0.0305,-0.0171,20.20
319076838638700,625755,-9.2842,-0.5276,-3.2016,0.0024,-0.0379,-0.0110,20.20
319076850241300,625766,-9.3416,-0.4666,-3.0855,-0.0550,-0.0916,0.0171,20.18
319076861421000,625777,-9.3523,-0.3733,-2.8857,-0.0782,-0.1173,0.0281,20.23
319076872577700,625788,-9.3200,-0.2010,-2.6955,-0.0501,-0.1234,0.0269,20.23
319076884214800,625800,-9.3308,-0.1914,-2.7230,-0.0269,-0.1136,0.0134,20.21
319076895252300,625811,-9.3188,-0.1926,-2.7159,-0.0220,-0.1075,-0.0024,20.21
319076906457700,625823,-9.3212,-0.2297,-2.7362,-0.0098,-0.1002,-0.0147,20.20
319076917808500,625835,-9.3308,-0.3039,-2.7422,-0.0037,-0.0929,-0.0244,20.20
319076929236200,625846,-9.3308,-0.3362,-2.6788,0.0012,-0.0867,-0.0269,20.21
319076940346100,625857,-9.3332,-0.3398,-2.6692,0.0037,-0.0733,-0.0293,20.23
319076951595500,625868,-9.3440,-0.3553,-2.7350,0.0183,-0.0611,-0.0305,20.23
319076963292400,625880,-9.3380,-0.4140,-2.8439,0.0220,-0.0574,-0.0281,20.24
319076974396700,625891,-9.3452,-0.4762,-2.8570,0.0049,-0.0623,-0.0195,20.24
319076985469900,625902,-9.3488,-0.4331,-2.8845,-0.0024,-0.0709,-0.0049,20.22
319076996518600,625913,-9.3440,-0.4152,-2.8642,-0.0244,-0.0770,0.0073,20.22
319077008364100,625925,-9.3404,-0.3781,-2.8235,-0.0452,-0.0843,0.0171,20.22
319077019559200,625936,-9.3308,-0.2955,-2.7338,-0.0452,-0.0880,0.0232,20.22
319077030667800,625947,-9.3440,-0.2943,-2.7757,-0.0440,-0.0806,0.0232,20.21
319077042263700,625958,-9.3428,-0.3051,-2.7888,-0.0452,-0.0819,0.0232,20.20
319077053367400,625970,-9.3368,-0.2596,-2.7661,-0.0354,-0.0843,0.0232,20.20
319077064603500,625981,-9.3356,-0.2477,-2.7434,-0.0269,-0.0831,0.0220,20.19
319077075571800,625992,-9.3488,-0.2596,-2.7888,-0.0183,-0.0819,0.0183,20.19
319077087326200,626003,-9.3404,-0.2548,-2.8092,-0.0195,-0.0831,0.0171,20.19
319077098530700,626015,-9.3488,-0.1962,-2.7829,-0.0269,-0.0892,0.0171,20.19
319077109683100,626026,-9.3368,-0.1986,-2.7194,-0.0330,-0.0867,0.0037,20.19
319077121295300,626037,-9.3440,-0.2154,-2.7601,-0.0220,-0.0831,-0.0012,20.21
319077132311400,626049,-9.3488,-0.2189,-2.7721,-0.0330,-0.0831,-0.0037,20.21
319077143410700,626060,-9.3488,-0.2632,-2.7470,-0.0403,-0.0855,-0.0061,20.22
319077154767800,626071,-9.3380,-0.2154,-2.6931,-0.0354,-0.0843,-0.0037,20.22
319077166545700,626082,-9.3356,-0.1364,-2.6034,-0.0318,-0.0782,-0.0037,20.21
319077177507700,626094,-9.3296,-0.1005,-2.5675,-0.0049,-0.0672,-0.0147,20.21
319077188600500,626105,-9.3404,-0.1890,-2.9731,0.0293,-0.0513,-0.0281,20.21
319077200102700,626116,-9.3583,-0.2740,-2.8391,0.0428,-0.0476,-0.0318,20.22
319077211281800,626127,-9.3523,-0.3147,-2.8774,0.0208,-0.0550,-0.0257,20.22
319077222505500,626139,-9.3631,-0.3194,-2.8917,0.0012,-0.0660,-0.0183,20.21
319077233521900,626150,-9.3583,-0.3015,-2.8319,-0.0257,-0.0806,-0.0073,20.21
319077245233600,626161,-9.3607,-0.2070,-2.7314,-0.0367,-0.0867,0.0000,20.21
319077256443900,626172,-9.3416,-0.1268,-2.6764,-0.0293,-0.0867,-0.0012,20.21
319077267635800,626184,-9.3356,-0.1484,-2.6213,-0.0195,-0.0806,-0.0098,20.25
319077279083000,626195,-9.3488,-0.2154,-2.6596,-0.0012,-0.0709,-0.0171,20.25
319077290271300,626206,-9.3428,-0.2716,-2.7529,0.0257,-0.0525,-0.0195,20.22
319077301361400,626217,-9.3583,-0.3194,-2.8199,0.0183,-0.0525,-0.0134,20.23
319077312569400,626229,-9.3643,-0.2776,-2.7936,-0.0073,-0.0599,-0.0012,20.23
319077324391900,626240,-9.3679,-0.2548,-2.7434,-0.0367,-0.0660,0.0061,20.23
319077335472100,626251,-9.4995,-0.1639,-2.7541,-0.0367,-0.0684,0.0073,20.23
319077346496000,626263,-9.3500,0.1424,-2.7434,-0.0110,-0.1087,-0.0281,20.22
319077358164700,626274,-9.3811,-0.5396,-2.6070,-0.0269,-0.1148,-0.0599,20.22
319077369357800,626285,-9.4038,-0.2716,-2.6895,0.0220,-0.1063,-0.0183,20.23
319077380551200,626296,-9.3846,-0.1472,-2.5842,-0.0305,-0.1026,-0.0244,20.25
319077391919900,626308,-9.3727,-0.2871,-2.5472,-0.0354,-0.0929,-0.0428,20.25
319077403546600,626320,-9.4050,-0.1340,-2.6309,0.0086,-0.0892,-0.0562,20.23
319077414315500,626331,-9.4110,-0.3254,-2.5519,-0.0098,-0.0916,-0.0721,20.23
319077425548100,626342,-9.3942,-0.2273,-2.5926,-0.0098,-0.0904,-0.0794,20.26
319077437343100,626354,-9.5007,-0.2189,-2.4766,-0.0611,-0.1014,-0.0941,20.26
319077448324100,626365,-9.3320,-0.3697,-2.2935,-0.0635,-0.1161,-0.1393,20.25
319077459625900,626376,-9.3081,0.0335,-2.3043,0.0244,-0.0843,-0.1429,20.25
319077471195600,626387,-9.5139,-0.1053,-2.5962,-0.0232,-0.0586,-0.1576,20.25
319077482218600,626399,-9.3416,-0.0706,-2.5184,0.0709,-0.0880,-0.2162,20.24
319077493445800,626410,-9.3547,-0.5886,-2.4790,0.0745,-0.0660,-0.2236,20.24
319077504619000,626421,-9.4361,-0.4080,-2.7709,0.0611,-0.0489,-0.1710,20.26
319077516175600,626433,-9.3906,-0.1807,-2.7912,0.0721,-0.0672,-0.1600,20.26
319077527429100,626444,-9.2794,-0.5982,-2.6883,0.0244,-0.0733,-0.1527,20.24
319077538630800,626455,-9.2925,-0.5611,-2.7852,0.0110,-0.0696,-0.1295,20.24
319077550355800,626466,-9.2028,-0.4774,-2.8534,-0.0147,-0.0672,-0.1319,20.24
319077561455800,626478,-9.3679,-0.6999,-2.9456,-0.0977,-0.0476,-0.0855,20.23
319077572513600,626489,-9.2602,0.0239,-3.0006,-0.0293,-0.0757,-0.1173,20.23
319077583657000,626500,-9.3440,-0.8040,-2.7852,-0.0941,-0.0794,-0.1491,20.27
319077595211400,626511,-9.2901,-0.5898,-2.8175,-0.1026,-0.0733,-0.1173,20.27
319077606485800,626523,-9.3643,-0.4355,-2.9073,-0.1038,-0.0660,-0.0941,20.27
319077617558500,626534,-9.2877,0.0514,-2.7182,-0.1210,-0.0880,-0.1100,20.27
319077629180900,626545,-9.3631,-0.6628,-2.5675,-0.0464,-0.0843,-0.1881,20.26
319077640400700,626556,-9.3799,-0.4271,-2.6776,-0.0635,-0.0623,-0.1588,20.25
319077651610600,626568,-9.3858,-0.4427,-2.6058,-0.0953,-0.0586,-0.1222,20.25
319077663103300,626579,-9.4050,-0.0658,-2.7099,-0.0733,-0.0684,-0.1381,20.27
319077674254500,626590,-9.4158,-0.2201,-2.5639,-0.0208,-0.0880,-0.2065,20.27
319077685423200,626601,-9.4038,-0.5515,-2.3486,-0.0379,-0.0843,-0.2138,20.23
319077696748700,626613,-9.3224,-0.3147,-2.5340,0.0452,-0.0672,-0.2382,20.23
319077708255500,626624,-9.3727,-0.5468,-2.5507,0.0489,-0.0574,-0.2553,20.27
319077719583000,626635,-9.4217,-0.8435,-2.5795,-0.0269,-0.0330,-0.1808,20.27
319077730609400,626647,-9.3858,-0.7119,-2.6082,-0.0757,-0.0293,-0.1283,20.29
319077742274900,626658,-9.3763,-0.1842,-2.7422,-0.0538,-0.0403,-0.1405,20.26
319077753585000,626670,-9.3500,-0.5204,-2.5914,-0.0293,-0.0525,-0.1894,20.26
319077764497800,626681,-9.3500,-0.7095,-2.4921,0.0305,-0.0525,-0.2285,20.27
319077776246200,626693,-9.3990,-0.9081,-2.5878,-0.0147,-0.0305,-0.1906,20.27
319077787521300,626704,-9.3571,-0.5037,-2.6991,0.0354,-0.0305,-0.1918,20.27
319077798571400,626715,-9.3811,-0.8040,-2.6429,0.0269,-0.0452,-0.2175,20.27
319077810197700,626726,-9.3835,-1.0038,-2.5424,0.0501,-0.0538,-0.2224,20.24
319077821264300,626738,-9.3344,-0.8961,-2.7063,-0.0440,-0.0476,-0.1576,20.25
319077832430400,626749,-9.4385,-0.6114,-2.8463,-0.0367,-0.0440,-0.1454,20.25
319077843476900,626760,-9.2698,-0.2764,-2.7817,0.0012,-0.0709,-0.1967,20.25
319077855368500,626771,-9.3607,-1.1151,-2.5316,-0.0195,-0.0709,-0.2126,20.25
319077866484900,626783,-9.3320,-0.7178,-2.6118,-0.0061,-0.0574,-0.1625,20.25
319077877495200,626794,-9.3655,-0.7908,-2.4885,0.0305,-0.0489,-0.1527,20.25
319077889138600,626805,-9.3763,-0.6951,-2.6477,0.0073,-0.0305,-0.1344,20.23
319077900411100,626817,-9.3727,-0.7071,-2.7003,0.0318,-0.0171,-0.1307,20.25
319077911446100,626828,-9.3272,-0.5432,-2.7769,0.0550,-0.0281,-0.1503,20.25
319077922758800,626839,-9.4002,-0.8758,-2.7505,0.0208,-0.0305,-0.1552,20.21
319077934413200,626850,-9.3081,-0.9380,-2.6979,0.0110,-0.0330,-0.1332,20.21
319077945415900,626862,-9.2973,-0.7226,-2.8475,0.0037,-0.0305,-0.1112,20.25
319077956652800,626873,-9.3129,-0.7944,-2.8175,0.0208,-0.0354,-0.1295,20.25
319077968254600,626884,-9.2542,-0.7597,-2.7613,-0.0024,-0.0367,-0.1283,20.28
319077979425900,626895,-9.4158,-0.9224,-2.6764,0.0024,-0.0452,-0.1210,20.28
319077990583600,626907,-9.3081,-0.8435,-2.8080,-0.0195,-0.0538,-0.0916,20.29
319078002200400,626918,-9.3811,-1.4130,-2.7745,-0.0367,-0.0464,-0.0525,20.23
319078013362200,626929,-9.3141,-0.4810,-2.9898,-0.0012,-0.0733,-0.0330,20.23
319078024462900,626940,-9.3416,-1.1151,-2.6836,-0.0611,-0.0819,-0.0367,20.25
319078035667600,626952,-9.2865,-0.7561,-2.7697,-0.0012,-0.0782,-0.0367,20.25
319078047446900,626963,-9.2901,-0.5767,-2.8750,-0.0134,-0.0843,-0.0648,20.24
319078058493900,626974,-9.3404,-1.4070,-2.5579,-0.0012,-0.1014,-0.1112,20.24
319078069710400,626987,-9.3296,-0.7047,-2.8642,-0.0379,-0.0819,-0.0354,20.23
319078081273800,626998,-9.3141,-0.7167,-2.6847,-0.0599,-0.0904,-0.0599,20.29
319078092426100,627009,-9.3033,-1.3005,-2.4897,-0.1112,-0.0770,-0.0330,20.29
319078103660200,627020,-9.3870,-0.8399,-2.8391,-0.0733,-0.0635,-0.0049,20.25
319078115137900,627032,-9.3930,-0.7382,-2.6584,-0.0745,-0.0794,-0.0122,20.25
319078126449700,627043,-9.3069,-0.8674,-2.5232,-0.0452,-0.0880,-0.0293,20.28
319078137572200,627054,-9.3978,-0.9643,-2.7326,-0.0012,-0.0843,-0.0403,20.28
319078149134700,627065,-9.3918,-0.9356,-2.6273,0.0281,-0.1112,-0.0904,20.29
319078160390600,627077,-9.3835,-1.2658,-2.4574,-0.0257,-0.1393,-0.0623,20.26
319078171695200,627088,-9.3679,-0.9619,-2.4598,-0.0452,-0.1185,0.0086,20.26
319078182806600,627099,-9.3571,-0.3900,-2.6847,-0.0257,-0.1161,0.0000,20.24
319078194178500,627110,-9.3081,-1.0349,-2.4861,-0.0611,-0.1148,-0.0195,20.24
319078205375800,627122,-9.2794,-0.4666,-2.6644,0.0049,-0.1087,-0.0367,20.25
319078216672100,627133,-9.3523,-1.0433,-2.4873,-0.0134,-0.0880,-0.0574,20.25
319078228007300,627144,-9.2818,-0.7765,-2.4826,0.0318,-0.0794,-0.0684,20.23
319078239305700,627155,-9.3858,-0.6508,-2.7805,0.0061,-0.0269,0.0208,20.25
319078250590600,627167,-9.4122,-0.3948,-2.7553,0.0599,-0.0550,-0.0293,20.25
319078261520600,627178,-9.3703,-1.1091,-2.6166,0.0061,-0.0709,-0.0599,20.25
319078273216700,627189,-9.4074,-0.8722,-2.8187,0.0403,-0.0782,-0.0562,20.25
319078284379200,627201,-9.2794,-0.8052,-2.8750,0.0269,-0.1038,-0.0782,20.21
319078295707800,627212,-9.3595,-1.2299,-2.7111,-0.0134,-0.1112,-0.0733,20.21
319078307164700,627223,-9.2877,-0.9176,-2.8020,-0.0293,-0.1161,-0.0464,20.25
319078318346600,627234,-9.3464,-1.1665,-2.6632,-0.0904,-0.1148,-0.0110,20.25
319078329636500,627246,-9.3416,-0.9224,-2.9982,-0.1662,-0.1112,0.0782,20.26
319078341286500,627257,-9.3535,-0.5623,-2.7541,-0.1246,-0.1417,0.0525,20.23
319078352397900,627268,-9.2303,-0.7980,-2.7075,-0.1552,-0.1503,0.0171,20.23
319078363572400,627279,-9.3655,-0.8315,-2.5089,-0.1087,-0.1454,-0.0073,20.22
319078374513900,627291,-9.3870,-1.2538,-2.2839,-0.1686,-0.1222,0.0415,20.22
319078386251200,627302,-9.3715,-0.5180,-2.4538,-0.1002,-0.1014,0.0794,20.24
319078397515500,627313,-9.3930,-0.0730,-2.5783,-0.0293,-0.1014,0.0269,20.24
319078408455100,627324,-9.4433,-0.8614,-2.5711,0.0012,-0.1063,-0.1197,20.24
319078420028400,627336,-9.3930,-1.2012,-2.3833,-0.0244,-0.0977,-0.0770,20.23
319078431284500,627348,-9.4409,-0.9535,-2.5663,-0.0098,-0.0867,-0.0257,20.23
319078442521800,627359,-9.4170,-0.6114,-2.7541,-0.0415,-0.0953,0.0159,20.25
319078454055000,627371,-9.3440,-0.5360,-2.5711,-0.0134,-0.1197,-0.0110,20.25
319078465424500,627382,-9.3703,-0.9571,-2.4957,-0.0415,-0.1124,-0.0159,20.27
319078476399100,627393,-9.2734,-0.5133,-2.7338,0.0257,-0.1112,-0.0403,20.27
319078487498800,627404,-9.3344,-1.2179,-2.7302,-0.0257,-0.1002,-0.0489,20.25
319078499439800,627416,-9.3703,-1.0086,-2.9815,-0.1307,-0.1197,0.0183,20.24
319078510404100,627427,-9.3918,-0.5432,-2.8618,-0.1100,-0.1613,-0.0012,20.24
319078521688200,627438,-9.4038,-1.0493,-2.5735,-0.1539,-0.1881,-0.0171,20.26
319078533185400,627449,-9.4289,-0.7406,-2.2385,-0.1723,-0.1943,0.0183,20.26
319078544359500,627461,-9.4409,-0.3553,-2.2421,-0.0831,-0.1833,-0.0012,20.29
319078555583900,627472,-9.4421,-0.5456,-2.2899,-0.1014,-0.1710,-0.0293,20.29
319078567055000,627483,-9.5139,-0.8028,-2.3773,-0.0562,-0.1649,-0.0428,20.27
319078578406900,627494,-9.3703,-0.8758,-2.5543,-0.0635,-0.1735,-0.0415,20.27
319078589486800,627506,-9.3799,-0.8375,-2.4467,-0.0721,-0.1943,-0.0281,20.26
319078600493800,627517,-9.4038,-0.4953,-2.6058,-0.0403,-0.1906,-0.0293,20.26
319078612317600,627528,-9.3392,-0.9308,-2.5256,-0.0586,-0.1845,-0.0452,20.26
319078623374100,627539,-9.3440,-0.7645,-2.5531,-0.1136,-0.1747,-0.0183,20.24
319078634690300,627551,-9.4026,-0.5384,-2.4586,-0.1063,-0.1747,-0.0195,20.24
319078646360800,627562,-9.4540,-0.6891,-2.2935,-0.1222,-0.1698,-0.0305,20.25
319078657378200,627573,-9.4134,-0.3900,-2.4514,-0.1002,-0.1674,-0.0464,20.25
319078668468200,627585,-9.3093,-0.5587,-2.3641,-0.0953,-0.1674,-0.0330,20.27
319078680157800,627596,-9.4636,-0.8136,-2.4467,-0.0611,-0.1552,-0.0428,20.23
319078691357900,627608,-9.3930,-0.7693,-2.3833,-0.1002,-0.1613,-0.0061,20.23
319078702779100,627619,-9.4947,-0.3517,-2.6441,-0.0318,-0.1637,-0.0391,20.28
319078714317100,627631,-9.4146,-0.7418,-2.5938,-0.0574,-0.1943,-0.0953,20.28
319078725472300,627642,-9.4217,-1.4070,-2.3366,-0.0782,-0.2053,-0.0855,20.21
319078736497800,627653,-9.4875,-1.1198,-2.5113,-0.1100,-0.1979,-0.0134,20.21
319078748229600,627664,-9.4923,-0.6688,-2.2014,-0.1491,-0.2101,0.0244,20.28
319078759389300,627676,-9.4098,-0.1687,-2.3019,-0.0880,-0.2285,-0.0415,20.24
319078770533900,627687,-9.5222,-0.6903,-2.2672,-0.1136,-0.2260,-0.1112,20.24
319078782141400,627698,-9.4780,-1.0899,-1.8975,-0.1454,-0.2260,-0.0953,20.24
319078793254100,627709,-9.5222,-0.8495,-1.9190,-0.1124,-0.2101,-0.0428,20.24
319078804625500,627721,-9.5151,-0.1938,-2.1260,-0.1002,-0.2016,-0.0305,20.24
319078815883300,627732,-9.6694,-0.4343,-1.8568,-0.0354,-0.2175,-0.1051,20.24
319078827212500,627743,-9.4780,-0.6293,-1.6869,-0.0990,-0.2236,-0.1136,20.24
319078838390900,627755,-9.5701,-0.5862,-1.7755,-0.0586,-0.1881,-0.0586,20.24
319078849701000,627766,-9.5306,-0.5815,-1.8879,-0.0415,-0.1368,-0.0501,20.27
319078861387000,627777,-9.4648,-0.2883,-2.0913,-0.0269,-0.1283,-0.0599,20.25
319078872423600,627788,-9.4660,-0.5336,-1.9178,0.0244,-0.1332,-0.1271,20.25
319078883717000,627800,-9.4780,-0.9464,-1.9729,-0.0049,-0.1075,-0.1344,20.25
319078895270100,627811,-9.5557,-1.1785,-1.9442,0.0122,-0.0757,-0.0843,20.25
319078906202000,627822,-9.3787,-0.3434,-2.3749,0.0220,-0.0709,-0.0586,20.28
319078917665000,627833,-9.5737,-0.8578,-2.3533,0.0147,-0.0782,-0.0977,20.28
319078928443800,627845,-9.6168,-0.4738,-2.2050,0.0098,-0.1051,-0.0513,20.26
319078940164000,627856,-9.5067,-0.6090,-2.0566,0.0037,-0.1283,-0.0696,20.30
319078951405400,627867,-9.5737,-1.0014,-2.0040,0.0232,-0.1234,-0.0831,20.30
319078962499400,627878,-9.4696,-0.7167,-2.1009,-0.0098,-0.1295,-0.0476,20.27
319078974191200,627890,-9.4971,-0.5240,-2.2122,0.0134,-0.1393,-0.0684,20.27
319078985369800,627902,-9.5342,-0.8411,-2.1763,-0.0257,-0.1405,-0.0855,20.27
319078996600300,627913,-9.4612,-0.5635,-2.1631,0.0098,-0.1637,-0.1197,20.27
319079008133900,627924,-9.4564,-1.1761,-2.0291,-0.0550,-0.1539,-0.1197,20.27
319079019362700,627936,-9.4612,-0.8913,-2.2217,-0.0611,-0.1319,-0.0648,20.25
319079030521000,627947,-9.5414,-0.6784,-2.0399,-0.0134,-0.1527,-0.0941,20.25
319079041800200,627958,-9.5510,-0.9523,-1.9442,-0.0696,-0.1637,-0.1002,20.27
319079053352100,627970,-9.6610,-0.7095,-1.9908,0.0049,-0.1735,-0.1319,20.27
319079064486100,627981,-9.5617,-0.7717,-1.9358,-0.0464,-0.2028,-0.1515,20.22
