host_timestamp,arduino_timestamp,ax,ay,az,gx,gy,gz,temperature
306737983053400,205754,-1.1055,-8.6572,6.9703,-0.4154,0.0525,-0.0342,19.66
306737994348000,205765,-1.3460,-8.5711,6.7801,-0.3531,-0.0354,-0.1332,19.66
306738005362700,205776,-1.5649,-8.5807,6.8626,-0.3555,-0.1271,-0.2126,19.66
306738017289300,205788,-1.7396,-8.8534,7.2215,-0.3396,-0.1881,-0.2358,19.66
306738028287000,205799,-1.3448,-9.2590,7.5517,-0.1979,-0.1967,-0.1796,19.66
306738039273200,205810,-1.5087,-9.2435,7.6427,0.0244,-0.1100,-0.1429,19.62
306738050574900,205821,-1.1940,-9.4588,7.8162,0.1307,0.0183,-0.0098,19.62
306738062462200,205833,-2.1129,-9.7292,7.8676,0.2676,0.2065,0.1759,19.61
306738073431400,205844,-2.8893,-9.8740,7.8891,0.5461,0.3286,0.3396,19.61
306738084613600,205855,-3.6168,-9.8082,7.5422,0.8283,0.3311,0.5046,19.61
306738096061200,205867,-3.8800,-9.2949,7.4106,1.0495,0.2395,0.6707,19.61
306738107386100,205878,-3.4445,-9.3057,7.5182,1.0605,0.1222,0.8088,19.68
306738118458800,205889,-2.9695,-14.0447,7.9669,1.6286,0.0305,1.0556,19.66
306738129362300,205900,-4.5344,-10.5177,6.4116,3.5956,0.0770,1.5382,19.66
306738141413600,205913,-3.5581,-7.5876,6.1232,4.4459,0.0061,1.9609,19.66
306738152393400,205924,-2.6859,-9.9135,6.7334,4.2040,-0.0538,2.2578,19.66
306738163573400,205935,-3.0114,-8.9527,7.1533,4.6560,-0.0098,2.8136,19.65
306738175232900,205946,-2.6584,-8.8080,7.7563,5.5088,0.1833,3.3524,19.65
306738186380300,205958,-3.2267,-6.8387,7.8867,6.5754,0.4581,3.9560,19.66
306738197442200,205969,-2.7434,-2.5914,6.3781,7.0983,0.8015,4.7305,19.66
306738208416400,205980,-3.1059,-3.6598,6.0407,5.7886,1.2425,4.8185,19.68
306738220302900,205991,-3.9039,-4.0762,6.2596,5.5015,1.2034,4.9724,19.65
306738231376500,206003,-4.4806,-2.0435,5.4281,5.9706,1.0849,5.1875,19.65
306738242412800,206014,-3.6455,-1.6774,5.4975,5.8252,0.9456,5.2192,19.60
306738254114400,206025,-3.4660,-1.4022,5.7081,5.0311,0.8601,5.0396,19.60
306738265317400,206036,-3.4995,0.2524,5.7571,4.3310,0.7110,4.8246,19.62
306738276495700,206048,-2.8235,1.4943,6.1065,3.6017,0.5009,4.7489,19.62
306738287525700,206059,-0.9858,2.2373,8.3390,3.1289,0.6231,5.0225,19.63
306738299239100,206070,1.0648,1.6451,9.3858,4.6206,1.1203,5.0128,19.65
306738310320900,206082,0.2907,4.6636,9.2088,7.2192,1.8326,4.7476,19.65
306738321557800,206093,-2.1787,8.2146,6.6664,7.8411,2.3078,4.2199,19.64
306738332592300,206104,-2.6130,9.5270,6.0634,5.7446,2.1612,3.4819,19.64
306738344343300,206115,-2.6668,8.0842,6.0730,2.7098,1.5492,2.6475,19.63
306738355447000,206127,-2.2385,5.9438,6.4463,0.8943,0.7868,1.8363,19.63
306738366495500,206138,-1.6247,4.6146,7.7181,0.1124,0.1833,1.2511,19.64
306738378213000,206149,-1.4213,3.2136,9.1549,-0.2431,0.0745,0.8344,19.62
306738389333800,206160,-1.8377,3.2447,9.1095,0.1319,0.1857,0.7355,19.62
306738400432000,206172,-1.6187,2.6309,9.3631,0.4007,0.2370,0.7062,19.65
306738411264100,206183,-1.8473,2.7266,9.8608,0.7917,0.3189,0.7746,19.65
306738423149500,206194,-2.5244,2.9743,9.9482,0.9517,0.4117,0.8540,19.65
306738434346300,206205,-2.9587,3.2375,9.7484,0.9529,0.5058,0.8845,19.65
306738445375300,206217,-2.4562,3.2183,9.4840,0.6426,0.5999,0.8968,19.69
306738456550100,206228,-1.9717,3.1250,9.0162,0.3995,0.6878,0.9468,19.69
306738468303800,206239,-1.4536,4.4363,8.1846,0.6903,0.9591,1.0238,19.62
306738479212100,206251,-1.4764,5.3468,7.3388,0.8528,1.0800,1.0018,19.60
306738490181400,206262,-1.4800,6.0395,6.5504,0.6732,1.1044,0.9444,19.60
306738501458100,206273,-1.6666,6.4379,6.4774,0.4215,1.0055,0.8699,19.63
306738513186500,206284,-1.7623,6.9715,6.4187,0.3470,0.8650,0.7550,19.63
306738524446600,206296,-1.5709,7.4608,6.0538,0.1552,0.7172,0.6084,19.63
306738535582400,206307,-1.3543,8.3462,5.7272,-0.2786,0.5046,0.3836,19.63
306738547290700,206318,-1.7324,7.4130,6.1615,-1.2278,0.2138,0.0745,19.64
306738558288800,206329,-1.9190,6.3015,6.1711,-2.9603,-0.2529,-0.4606,19.63
306738569409100,206341,-0.7908,3.8512,7.3878,-3.6346,-0.6585,-0.7514,19.63
306738580416300,206352,-0.5061,2.8211,8.9264,-3.2205,-1.0226,-0.9102,19.62
306738592331800,206363,-0.8267,2.5890,9.7244,-2.6279,-1.2168,-0.9872,19.62
306738603418100,206374,-0.8542,1.8508,10.2568,-2.3262,-1.2339,-1.0715,19.61
306738615174800,206386,-1.0875,1.6475,10.7510,-1.8754,-1.1020,-1.0825,19.61
306738626168300,206397,-1.6068,1.9753,10.8431,-1.3256,-0.8296,-1.0079,19.62
306738637277200,206408,-2.8044,2.6333,9.9326,-0.1710,-0.1674,-0.7123,19.62
306738648267700,206419,-4.0917,3.5055,10.1492,0.3030,0.1100,-0.5070,19.61
306738660149200,206431,-5.1876,3.8345,9.7723,0.4508,0.3384,-0.3140,19.64
306738671193700,206442,-5.6650,3.5629,9.3523,0.6353,0.4630,-0.1381,19.64
306738682237000,206453,-5.6602,3.9517,9.0604,1.1777,0.5241,0.0819,19.64
306738694110700,206465,-6.1005,4.5882,8.9408,1.6457,0.5986,0.3018,19.64
306738705159900,206476,-5.3563,3.7819,8.9827,2.0232,0.7575,0.5253,19.64
306738716192800,206487,-5.8277,5.1697,6.8674,2.6780,1.0544,0.9053,19.64
306738727112300,206498,-5.0130,7.1234,6.5432,2.7012,1.4856,1.4661,19.62
306738738999700,206510,-5.4114,6.9105,5.8158,2.2370,1.5406,1.5687,19.66
306738749936400,206521,-4.8060,6.6927,5.3348,1.9548,1.5259,1.6567,19.66
306738761104600,206532,-4.2772,7.4608,5.0405,1.7300,1.4661,1.7654,19.65
306738772111200,206543,-3.9135,8.0530,4.6457,1.2816,1.4453,1.7495,19.65
306738783922600,206556,-3.6287,8.2026,4.4363,0.7685,1.4820,1.6359,19.63
306738795230500,206567,-3.7878,7.9549,4.6672,0.3714,1.5113,1.4429,19.63
306738806230500,206578,-4.8120,7.8126,4.3035,0.3861,1.4649,1.1924,19.65
306738818113500,206589,-4.2580,7.8844,3.6299,0.6206,1.0458,0.6341,19.63
306738829291700,206601,-4.1456,7.4668,3.6132,0.3250,0.6524,0.5034,19.63
306738840442300,206612,-3.4816,8.2313,4.5882,0.0464,0.2957,0.4581,19.66
306738851300100,206623,-3.2160,8.0327,5.1506,-0.5253,0.0354,0.3054,19.66
306738863076000,206635,-3.4648,7.5434,5.6219,-1.0091,-0.1759,0.1112,19.60
306738874298800,206646,-3.0604,7.2467,6.1472,-1.3659,-0.3714,-0.0660,19.60
306738885718100,206657,-2.6836,7.4094,6.3135,-1.7190,-0.6048,-0.2737,19.64
306738897250500,206668,-2.5651,6.5611,7.0421,-2.1612,-0.8442,-0.8748,19.64
306738908315300,206680,-2.6094,5.7775,7.7515,-2.7574,-1.3195,-1.2205,19.58
306738919279500,206691,-2.1057,4.9496,8.6632,-2.8564,-1.4368,-1.4832,19.64
306738930946500,206702,-1.5015,4.0905,9.1777,-2.9517,-1.4404,-1.6811,19.64
306738941991300,206713,-0.9523,3.3643,9.1537,-3.1936,-1.4160,-1.8473,19.64
306738952987300,206725,-1.3208,2.4215,8.9671,-3.6383,-1.4282,-2.0452,19.64
306738964999500,206736,-1.6929,1.0026,9.5067,-3.9890,-1.4881,-2.2504,19.67
306738975907900,206747,-1.3914,0.3147,10.1599,-3.8827,-1.5149,-2.4276,19.67
306738986978500,206758,-0.8865,-0.6532,10.5009,-3.1215,-1.1191,-2.4569,19.60
306738999148300,206770,-0.5348,-0.2692,10.4614,-2.6438,-0.7257,-2.2822,19.66
306739010130100,206781,-1.1270,-0.1747,10.2927,-2.3286,-0.3030,-1.9584,19.66
306739021200900,206792,-2.1081,-0.4618,10.3334,-1.9841,0.1148,-1.5137,19.67
306739033011000,206804,-2.6142,-0.0790,9.8489,-1.2046,0.4630,-1.0348,19.67
306739044135200,206816,-3.1573,1.8497,9.0999,-0.2566,0.7049,-0.6365,19.63
306739055216700,206827,-3.9111,3.9721,7.6475,0.2126,0.8173,-0.4203,19.63
306739066946000,206838,-4.9352,7.2957,5.6004,0.0684,0.7844,-0.3897,19.61
306739078049300,206850,-4.7677,6.6580,5.1171,-1.9865,0.3506,-0.6451,19.62
306739089129800,206861,-4.8144,5.2415,5.3922,-3.0421,-0.0244,-0.8491,19.62
306739100094100,206872,-4.6935,4.2042,6.4893,-3.6041,-0.3018,-1.0311,19.67
306739112075400,206883,-4.8371,2.8379,7.2395,-3.8863,-0.3812,-1.1362,19.67
306739123402300,206895,-5.1900,1.0959,8.2887,-3.9413,-0.3286,-1.0519,19.67
306739134472100,206906,-5.4293,-1.4405,9.6586,-3.1032,-0.2553,-0.8344,19.67
306739146286500,206917,-5.0560,0.5994,8.4909,-1.5382,-0.1014,-0.5131,19.65
306739157399900,206928,-4.9232,-1.2299,8.8810,-2.5974,0.2993,0.1735,19.65
306739168544700,206940,-4.6313,-0.8231,8.6656,-1.9584,0.3861,0.4765,19.68
306739180194900,206951,-4.2939,0.3984,8.7721,-1.4392,0.5156,0.6390,19.67
306739191334000,206962,-4.8383,0.1364,8.6189,-1.3769,0.6610,0.5583,19.67
306739202452800,206973,-5.1733,-0.6664,7.9825,-0.8577,0.6891,0.4093,19.66
306739213324000,206985,-5.4724,0.1663,7.2359,-0.4459,0.6487,0.3922,19.66
306739225244000,206996,-5.5418,-0.4247,7.5027,-1.0983,0.5217,0.3897,19.67
306739236372800,207007,-5.9653,-1.8305,8.8211,-1.9035,0.3384,0.3934,19.67
306739247157900,207019,-5.2714,-3.6108,9.3799,-1.8961,0.1466,0.4643,19.69
306739259235100,207030,-4.9268,-4.0714,9.7866,-1.4746,0.2150,0.4643,19.67
306739270319800,207041,-5.2929,-3.2674,9.0497,-0.8320,0.2981,0.3409,19.67
306739281475800,207052,-5.7200,-3.5952,9.0329,-0.7819,0.3079,0.1344,19.67
306739292613600,207064,-5.4688,-4.4566,9.5809,-0.7746,0.3250,-0.0049,19.67
306739304294200,207075,-5.5549,-4.2652,9.4313,-0.4337,0.3775,-0.0452,19.66
306739315775400,207086,-4.1109,-4.3992,10.1468,0.0501,0.4081,-0.1112,19.66
306739326588000,207097,-6.8303,-3.8668,9.0305,0.7782,0.4435,-0.2908,19.65
306739338237200,207109,-9.5067,-4.7641,7.8640,0.3005,-0.4985,-0.6377,19.66
306739349291000,207120,-5.2140,-5.6447,10.0570,-0.2199,-1.2523,-0.8222,19.66
306739360542300,207131,-4.1910,-5.3169,12.5348,-0.1796,-1.0470,-0.8748,19.65
306739372225800,207142,-4.3155,-5.8576,11.9007,-0.0098,-0.4484,-0.6267,19.65
306739383326300,207155,-4.0798,-4.3478,9.7424,0.6231,0.0342,-0.3555,19.64
306739394471000,207166,-4.8885,-3.1238,8.4945,0.9713,0.1991,-0.3128,19.64
306739405484900,207177,-5.0070,-2.5161,8.0088,0.9273,0.1356,-0.3995,19.66
306739417407200,207188,-4.8838,-1.7384,8.1512,0.3335,-0.0770,-0.6512,19.66
306739428118100,207200,-5.0345,-1.9513,8.2792,-0.0208,-0.1393,-0.7330,19.68
306739439135700,207211,-4.9747,-2.2804,8.5615,-0.2553,-0.1833,-0.7624,19.68
306739451050000,207222,-4.8096,-2.5208,8.8810,-0.3861,-0.2028,-0.7440,19.68
306739462143500,207234,-4.6636,-2.5723,9.2076,-0.3384,-0.1845,-0.7110,19.67
306739473285800,207245,-4.5775,-2.7111,9.4445,-0.1833,-0.1246,-0.6756,19.67
306739485041200,207256,-4.4782,-2.7230,9.5139,0.0941,-0.0330,-0.6390,19.68
306739496118600,207267,-4.4160,-2.7446,9.0939,0.2969,0.0562,-0.5974,19.68
306739507260300,207279,-4.5703,-2.3880,9.1107,0.6487,0.1466,-0.5229,19.63
306739518151500,207290,-4.6564,-2.1045,9.0712,0.7575,0.1710,-0.4753,19.64
306739530188100,207301,-4.6552,-1.7432,8.8140,0.8442,0.2065,-0.4154,19.64
306739541188300,207312,-4.6505,-1.1940,8.5699,0.8955,0.2285,-0.3641,19.65
306739552374400,207324,-4.6983,-0.6760,8.3701,0.7746,0.2162,-0.3421,19.65
306739563954600,207335,-4.7186,-0.5145,8.2469,0.5180,0.1747,-0.3360,19.64
306739574883800,207346,-4.7677,-0.5886,8.2648,0.2859,0.1185,-0.3335,19.64
306739585874100,207357,-4.4243,-0.7621,8.3964,0.1344,0.0562,-0.3348,19.64
306739596956100,207369,-4.4160,-0.8794,8.5196,-0.1429,-0.0745,-0.4227,19.69
306739608873200,207380,-4.4435,-1.0122,8.6776,-0.2199,-0.1271,-0.4753,19.69
306739620028400,207391,-4.5643,-1.2491,8.7972,-0.2822,-0.1613,-0.4814,19.63
306739630991800,207403,-4.7366,-1.6128,9.0544,-0.3042,-0.1649,-0.4142,19.63
306739643101700,207414,-4.7605,-2.0722,9.3978,-0.1613,-0.1295,-0.2920,19.65
306739653942300,207425,-4.5404,-1.9932,9.5845,0.1796,-0.0574,-0.1503,19.65
306739665157900,207436,-4.3370,-1.8413,9.2399,0.3409,0.0244,-0.0061,19.65
306739676963300,207448,-4.2209,-0.9763,8.4395,0.4191,0.0782,0.1759,19.65
306739688118800,207459,-4.3095,-0.6843,8.3737,0.2224,0.0232,0.1588,19.69
306739699053300,207470,-4.2999,-0.7023,8.4036,-0.0073,-0.0721,0.0611,19.67
306739710225100,207481,-4.2437,-0.9176,8.7266,-0.2187,-0.1833,-0.0794,19.67
306739721906900,207493,-4.1683,-1.2766,9.1286,-0.4276,-0.2590,-0.2627,19.68
306739733117500,207504,-4.0092,-1.9789,9.5581,-0.5840,-0.2908,-0.4606,19.68
306739744087900,207515,-3.9039,-2.5962,9.6538,-0.5889,-0.2871,-0.6158,19.66
306739756028400,207527,-3.8716,-2.9922,9.1418,-0.4765,-0.2419,-0.7037,19.66
306739767131200,207539,-4.1731,-3.0808,9.2602,0.1161,-0.1283,-0.7074,19.63
306739778149600,207550,-4.0343,-3.0544,9.3547,0.2737,-0.0440,-0.6756,19.66
306739789203200,207561,-4.0128,-3.1095,9.1597,0.3482,0.0440,-0.6500,19.66
306739801000700,207572,-4.0451,-3.0066,8.9958,0.5266,0.1038,-0.6585,19.69
306739812045200,207584,-4.1192,-2.6800,8.8965,0.6695,0.1356,-0.7049,19.69
306739823182000,207595,-4.3214,-2.3569,8.8427,0.7184,0.1356,-0.7844,19.67
306739835023500,207606,-4.3406,-2.2624,8.8941,0.7465,0.1173,-0.8784,19.67
306739846107600,207618,-4.5464,-2.4144,9.1478,0.8296,0.0965,-0.9493,19.68
306739857005000,207629,-4.7139,-2.2409,9.1418,1.1240,0.1271,-0.8357,19.66
306739868917200,207640,-4.9077,-2.0148,9.0592,1.1716,0.1796,-0.6475,19.66
306739879980800,207651,-5.0285,-1.8401,8.9970,1.1044,0.2370,-0.4129,19.65
306739891132600,207663,-4.9639,-1.6056,8.8869,1.0214,0.3030,-0.1710,19.65
306739902113400,207674,-4.8718,-1.1557,8.5196,0.8809,0.3641,0.0330,19.68
306739914118100,207685,-4.7330,-0.6269,8.1583,0.7025,0.3848,0.1564,19.68
306739925214700,207696,-4.6170,-0.3314,8.0088,0.5168,0.3433,0.1991,19.64
306739936285000,207708,-4.7665,-0.1807,8.0124,0.3128,0.2553,0.0855,19.64
306739947292800,207719,-4.6409,-0.5527,8.4491,-0.1527,-0.0049,-0.0244,19.65
306739959138200,207730,-4.5081,-0.9667,8.7314,-0.2627,-0.0794,-0.0977,19.63
306739970234000,207741,-4.5021,-1.2742,8.9216,-0.3079,-0.0733,-0.1075,19.63
306739981391700,207753,-4.4865,-1.4548,9.1717,-0.3885,-0.0281,-0.0806,19.66
306739993056300,207764,-4.2461,-1.6965,9.3284,-0.4740,0.0086,-0.0525,19.66
306740004137700,207775,-4.1001,-1.7348,9.1454,-0.4606,0.0318,-0.0440,19.62
306740015422200,207787,-4.3657,-1.6726,8.8355,-0.4300,0.0232,-0.0550,19.62
306740026496200,207798,-4.4746,-1.4656,8.8199,-0.2786,-0.0281,-0.1234,19.66
306740038097200,207809,-5.0345,-1.0911,8.2899,-0.4044,-0.0953,-0.1466,19.61
306740049044000,207820,-4.6193,-1.8317,8.6142,-0.6475,-0.1979,-0.2236,19.61
306740060100800,207832,-4.6780,-1.7563,8.7434,-0.4997,-0.2480,-0.2480,19.70
306740071957200,207843,-4.4471,-1.6211,8.7051,-0.4655,-0.2786,-0.2480,19.70
306740083017300,207854,-4.2544,-1.7850,8.8594,-0.5486,-0.3140,-0.2639,19.64
306740093967700,207865,-4.3478,-2.1224,9.2148,-0.6060,-0.3470,-0.2871,19.64
306740106001000,207877,-4.4447,-3.6251,10.4937,-0.5986,-0.3506,-0.3030,19.69
306740117249600,207888,-4.5416,-3.9326,10.8993,-0.2321,-0.1087,-0.1784,19.68
306740128220100,207899,-4.6528,-4.3633,10.6325,0.0452,0.0660,-0.0403,19.68
306740140155300,207910,-4.5607,-4.6325,9.9817,0.3457,0.1710,0.1234,19.69
306740151305600,207923,-4.4746,-4.7007,9.1430,0.8100,0.1723,0.2847,19.69
306740162431700,207933,-4.2042,-3.9446,8.0674,1.4783,0.0574,0.4288,19.65
306740173481800,207945,-3.1669,-2.1870,7.4477,1.7947,-0.1442,0.4985,19.65
306740185163800,207956,-4.0738,-1.0337,6.8339,1.4612,-0.4557,0.4630,19.66
306740195941200,207968,-2.0770,-0.3410,8.1296,0.8564,-0.7147,0.2114,19.66
306740207272000,207979,-1.9992,-1.7695,8.8223,-1.6139,-1.3195,-0.2016,19.64
306740219148000,207990,-1.9059,-2.9599,10.1504,-1.8741,-1.5455,-0.6781,19.66
306740230228700,208002,-1.8915,-3.6479,10.7785,-1.7446,-1.6188,-1.0434,19.66
306740241484500,208013,-1.9980,-4.4255,10.8850,-1.6677,-1.5773,-1.2535,19.68
306740253266000,208024,-1.8185,-4.6193,11.3312,-1.4148,-1.4111,-1.3195,19.68
306740264431800,208035,-1.9334,-4.5571,11.7440,-1.1362,-1.1362,-1.3207,19.69
306740276233500,208047,-1.3304,-5.8373,10.6182,-0.9102,-0.8039,-1.3109,19.69
306740287100000,208058,-1.4548,-6.2369,9.7208,0.1894,-0.2126,-1.1460,19.65
306740298398900,208069,-1.6259,-6.0120,8.9922,0.9285,-0.1112,-1.0275,19.68
306740310348600,208080,-1.8855,-4.9950,8.3103,1.6359,-0.1552,-0.9517,19.68
306740321328100,208092,-1.7838,-3.4110,7.7898,2.0415,-0.2822,-0.9774,19.66
306740332359100,208104,-1.4620,-2.2708,7.5182,2.1063,-0.4325,-1.1081,19.66
306740343490300,208115,-1.5673,-1.3304,7.4536,2.0342,-0.5620,-1.3427,19.65
306740355299300,208126,-1.6726,-0.3781,7.6008,1.9206,-0.6280,-1.6237,19.65
306740366433900,208138,-1.0624,-0.5838,8.7745,1.4331,-0.4936,-2.0281,19.67
306740377262600,208149,-1.1761,-2.3234,8.9288,0.0513,-0.3018,-2.0831,19.68
306740389332600,208160,-1.6953,-3.7388,9.2363,0.2688,-0.0929,-2.0378,19.68
306740400443200,208172,-2.2660,-3.9266,9.1777,0.7135,0.1173,-1.9303,19.64
306740411543300,208183,-2.3067,-3.7531,9.1346,1.0592,0.3115,-1.7801,19.64
306740423097100,208194,-3.5342,-3.3404,9.3248,1.3891,0.4569,-1.5919,19.71
306740434142400,208205,-4.9783,-2.7147,8.7446,1.6090,0.5217,-1.3916,19.71
306740445373000,208217,-5.4389,-1.9394,8.8941,1.6212,0.4386,-1.2339,19.70
306740456503600,208228,-5.0405,-1.5015,9.3308,1.1203,0.0916,-0.9701,19.65
306740468321300,208239,-4.6947,-1.3053,9.9541,1.0128,0.0208,-0.8222,19.65
306740479356600,208250,-4.3920,-0.9428,10.1360,1.0739,0.0538,-0.6634,19.70
306740490390400,208262,-4.3322,-0.6126,9.7759,1.2999,0.0892,-0.5168,19.70
306740502190600,208273,-5.0584,0.4642,9.5031,1.4404,0.0538,-0.3800,19.67
306740513329300,208284,-4.9472,2.0291,8.8582,1.5223,-0.0134,-0.3067,19.67
306740524297500,208295,-4.8275,2.3833,8.1811,1.2168,-0.1344,-0.3531,19.66
306740536157400,208307,-3.8393,1.5206,8.5292,0.4337,-0.2847,-0.4728,19.66
306740547198600,208318,-3.5880,-0.5288,9.2961,-1.0226,-0.3653,-0.6781,19.70
306740558417000,208329,-3.5378,-1.2395,8.9970,-0.5632,-0.3091,-0.5767,19.68
306740569457800,208340,-3.3093,-0.6305,8.1284,-0.0990,-0.3250,-0.5192,19.68
306740581219600,208352,-3.0233,0.4594,8.7362,-0.0342,-0.3971,-0.5437,19.68
306740592370600,208363,-2.7673,0.0646,9.4923,-0.5877,-0.3946,-0.6121,19.68
306740603451500,208374,-2.6142,-1.0732,9.6634,-0.9884,-0.3519,-0.6646,19.68
306740615193600,208386,-2.5890,-1.4477,9.8524,-0.8638,-0.3470,-0.6964,19.68
306740626117200,208397,-4.1061,-0.6903,9.1968,-0.3323,-0.3445,-0.7550,19.64
306740637503200,208409,-2.3390,-1.3412,9.4505,-1.1533,-0.3421,-0.8271,19.71
306740649305700,208420,-2.7517,-2.9563,10.1587,-1.3586,-0.2859,-0.7611,19.71
306740660369500,208432,-3.3858,-4.1276,9.6287,-0.9102,-0.1930,-0.5510,19.66
306740671451900,208443,-3.0030,-3.4181,9.6168,-0.3995,-0.1283,-0.2749,19.66
306740683227600,208454,-2.4251,-2.4885,9.9757,-0.2651,-0.0415,-0.0599,19.70
306740694349300,208465,-2.0841,-1.6869,10.0427,-0.2199,0.0929,0.0122,19.70
306740705503000,208477,-1.8042,-2.4036,9.9936,-0.2688,0.2211,-0.0501,19.65
306740717261700,208488,-1.8772,-2.7386,10.0822,-0.3629,0.3861,-0.2517,19.70
306740728358500,208499,-2.2504,-2.8044,10.2078,-0.2382,0.4459,-0.3323,19.70
306740739404800,208510,-2.5496,-2.8881,10.3490,-0.1161,0.4985,-0.3641,19.71
306740751021900,208522,-2.8140,-2.9408,10.2915,0.1136,0.5498,-0.3531,19.71
306740762304400,208533,-3.0999,-2.6943,9.9529,0.2969,0.5742,-0.3042,19.69
306740773233100,208544,-3.0927,-2.5113,9.4122,0.2639,0.5522,-0.2419,19.69
306740784174600,208556,-2.9946,-2.5196,9.2710,0.1723,0.5131,-0.1772,19.70
306740795978000,208567,-2.9683,-1.9777,9.2746,0.1429,0.4862,-0.1161,19.70
306740806936100,208578,-3.0748,-2.0243,9.2578,0.0525,0.4264,-0.1381,19.68
306740818111600,208589,-3.1442,-2.4586,9.3512,-0.0586,0.3861,-0.1344,19.71
306740829983100,208601,-3.0915,-2.6847,9.4026,-0.0220,0.3616,-0.0916,19.71
306740841191400,208612,-3.0197,-2.3976,9.4385,0.0916,0.3543,-0.0379,19.67
306740852212800,208623,-2.9886,-2.1583,9.4158,0.1038,0.3592,-0.0073,19.67
306740863241600,208634,-3.0197,-2.1212,9.3942,0.0648,0.3714,-0.0159,19.67
306740875093600,208646,-3.0879,-2.1260,9.3141,0.0464,0.3897,-0.0440,19.67
306740886134200,208657,-4.2748,-1.8808,9.1011,-0.0684,0.2749,-0.0476,19.69
306740897159900,208668,-3.7507,-2.6154,9.7986,-0.3983,-0.0574,-0.1234,19.67
306740909082500,208679,-3.3009,-3.0138,10.0128,-0.4032,-0.2309,-0.2065,19.67
306740920137100,208691,-3.4134,-2.8463,10.1408,-0.2456,-0.2639,-0.2321,19.64
306740931162200,208703,-3.3870,-2.6752,10.0738,-0.1576,-0.2382,-0.2138,19.64
306740942969400,208714,-3.1681,-2.8068,10.0343,-0.1833,-0.1955,-0.1845,19.66
306740954038900,208726,-3.0772,-2.8546,9.9482,-0.1454,-0.1466,-0.1625,19.66
306740965172700,208737,-2.9695,-2.3868,9.3105,-0.0379,-0.0953,-0.1478,19.66
306740976403200,208748,-2.9157,-2.2098,9.0102,-0.0159,-0.0037,-0.1405,19.68
306740988323300,208759,-2.9994,-2.1643,8.8558,-0.1051,-0.0073,-0.1454,19.68
306740999457500,208771,-2.9970,-2.3354,8.8654,-0.2260,-0.0452,-0.1491,19.67
306741010569500,208782,-2.9539,-2.4407,9.0054,-0.3103,-0.0904,-0.1515,19.67
306741022280500,208793,-3.0209,-2.6130,9.1669,-0.3494,-0.1210,-0.1588,19.66
306741033361700,208804,-2.9982,-2.8080,9.2614,-0.3457,-0.1344,-0.1527,19.66
306741044498000,208816,-2.9372,-2.9970,9.3512,-0.3018,-0.1210,-0.1295,19.70
306741056242700,208827,-2.9169,-2.8881,9.3535,-0.2248,-0.0941,-0.0843,19.70
306741067164100,208838,-2.8510,-2.9683,9.3332,-0.1197,-0.0464,-0.0672,19.70
306741078395500,208849,-2.8343,-2.8499,9.2112,-0.0635,-0.0244,-0.0379,19.64
306741089467100,208861,-2.8714,-2.6417,9.1202,-0.0257,-0.0171,-0.0208,19.64
306741101142000,208872,-2.9396,-2.6859,9.1298,-0.0709,-0.0257,-0.0232,19.70
306741112143100,208883,-2.9695,-2.7685,9.2195,-0.1026,-0.0391,-0.0244,19.70
306741123457400,208894,-2.9252,-2.8714,9.2925,-0.1210,-0.0452,-0.0159,19.66
306741135241400,208906,-2.9037,-2.9372,9.3488,-0.1185,-0.0476,-0.0122,19.66
306741146313800,208917,-2.8558,-2.8295,9.3224,-0.0305,-0.0403,-0.0220,19.70
306741157370900,208928,-2.8666,-2.7972,9.2674,-0.0195,-0.0379,-0.0232,19.70
306741168468300,208940,-2.9061,-2.8080,9.2722,-0.0208,-0.0354,-0.0208,19.70
306741180284000,208951,-2.9264,-2.7817,9.2088,0.0049,-0.0281,-0.0122,19.70
306741191178300,208962,-2.9324,-2.6572,9.1262,0.0269,-0.0232,-0.0073,19.70
306741202513600,208973,-2.9121,-2.6022,9.1178,0.0012,-0.0232,-0.0061,19.68
306741214161900,208985,-2.7661,-1.8760,9.7196,-0.0770,-0.0318,-0.0122,19.68
306741225298300,208996,-3.0903,-3.3930,9.1681,-0.3372,-0.0110,-0.0623,19.72
306741236487300,209007,-3.2088,-3.4672,9.7017,-0.2505,-0.0733,-0.0318,19.67
306741247483900,209018,-2.9587,-3.0592,9.6993,-0.0281,-0.0672,0.0012,19.67
306741259290200,209030,-2.9372,-2.8020,9.4421,0.0916,-0.0391,-0.0086,19.65
306741270372900,209041,-2.9850,-2.8283,9.3464,0.0648,-0.0171,-0.0244,19.65
306741281393300,209052,-2.9886,-2.8642,9.2423,0.0476,0.0000,-0.0208,19.66
306741292466300,209063,-2.9575,-2.7015,9.0903,0.0770,0.0086,-0.0086,19.66
306741304229200,209075,-2.9815,-2.5496,9.0497,0.0757,0.0000,-0.0147,19.66
306741315327100,209086,-3.0808,-2.9061,9.1645,0.0183,-0.0208,-0.0354,19.66
306741326357500,209097,-3.1059,-2.8941,9.2913,-0.0843,-0.0660,-0.0513,19.68
306741337435100,209108,-3.0401,-2.9228,9.3811,-0.0806,-0.0684,-0.0464,19.64
306741349217100,209120,-2.9886,-2.9348,9.3559,-0.0611,-0.0538,-0.0403,19.64
306741360378700,209131,-2.9539,-2.9970,9.2626,-0.0440,-0.0354,-0.0318,19.64
306741371484200,209142,-2.9192,-2.9898,9.1525,-0.0208,-0.0232,-0.0195,19.64
306741382584600,209154,-2.8666,-2.9838,9.0425,0.0012,-0.0183,-0.0049,19.67
306741394456400,209165,-2.8475,-2.8714,8.9671,0.0110,-0.0220,0.0061,19.67
306741405372500,209176,-2.8977,-2.9264,9.0413,-0.0061,-0.0318,0.0049,19.64
306741416464700,209187,-2.8845,-3.0078,9.2004,-0.0648,-0.0672,-0.0147,19.65
306741428136000,209199,-2.9073,-3.0580,9.3188,-0.0476,-0.0721,-0.0195,19.65
306741439317000,209210,-2.9587,-3.0162,9.4014,-0.0049,-0.0709,-0.0257,19.69
306741450431700,209221,-2.9815,-2.9408,9.4349,0.0379,-0.0611,-0.0305,19.69
306741461369400,209232,-3.0030,-2.9444,9.3823,0.0684,-0.0476,-0.0318,19.67
306741473119500,209244,-2.9994,-2.9671,9.2782,0.1026,-0.0354,-0.0281,19.67
306741484350800,209255,-2.9815,-2.9145,9.1681,0.1442,-0.0257,-0.0159,19.69
306741495452300,209266,-2.9563,-2.7350,9.0485,0.1600,-0.0220,-0.0171,19.69
306741506506600,209277,-2.8774,-2.7685,9.1035,0.1014,-0.0476,-0.0318,19.66
306741518098800,209289,-2.9073,-2.7733,9.2291,0.0696,-0.0489,-0.0452,19.64
306741529022900,209300,-2.9850,-2.6608,9.5605,0.0244,-0.0403,-0.0525,19.64
306741540194800,209311,-2.9647,-2.4849,9.4792,-0.1515,-0.0183,-0.0745,19.63
306741551909600,209323,-2.9061,-3.3619,8.9420,-0.0965,0.0183,-0.1014,19.63
306741562964700,209334,-2.8905,-3.3296,9.3165,-0.0024,0.0232,-0.0476,19.66
306741574065000,209345,-1.9908,-2.6381,9.1621,0.2040,0.1503,0.0269,19.66
306741584947000,209356,-4.6014,-2.7003,8.4526,0.4166,-0.0073,0.0354,19.68
306741596850900,209368,-2.3797,-3.1932,10.2844,-0.5009,-0.2004,-0.0696,19.66
306741607860900,209379,-3.4720,-3.1980,9.7543,-0.1295,-0.0648,-0.0611,19.66
306741619031400,209390,-3.4481,-2.8714,9.5474,0.0012,-0.0208,-0.0330,19.68
306741630882300,209401,-3.0951,-2.8427,10.0319,-0.1930,-0.0232,-0.0293,19.68
306741641865100,209414,-2.9850,-3.5521,9.6000,-0.1955,0.0525,-0.0391,19.69
306741652924400,209425,-3.1418,-3.5294,9.4720,0.0672,0.1075,-0.0086,19.69
306741663865500,209436,-3.3643,-3.1274,9.4720,0.1637,0.1210,0.0415,19.68
306741675861900,209447,-3.3823,-2.9169,9.0437,0.1784,0.0806,0.0208,19.67
306741687004300,209459,-3.5330,-2.8534,8.9324,0.1662,0.0257,-0.0147,19.67
306741697942200,209470,-3.7292,-2.8187,8.7135,0.1539,-0.0660,-0.0391,19.66
306741708949900,209481,-3.5031,-2.7876,8.7015,0.0843,-0.1869,-0.0501,19.66
306741720891400,209492,-4.0235,-2.5496,8.7422,0.0012,-0.3262,-0.0550,19.61
306741731893800,209504,-2.2265,-3.2937,9.4301,-0.1515,-0.4679,-0.1112,19.61
306741742902000,209515,-2.7517,-2.6177,9.2076,0.1393,-0.1796,-0.0990,19.68
306741754896900,209526,-3.3918,-2.7470,8.9145,0.1429,-0.0269,-0.0623,19.68
306741765933800,209538,-3.4923,-3.2028,9.2411,-0.0806,-0.1454,-0.0110,19.66
306741776916400,209549,-3.6550,-3.0556,9.1430,0.0672,-0.1258,0.0464,19.73
306741788049000,209560,-3.7424,-3.0054,9.2327,0.0696,-0.1405,0.0904,19.73
306741799880300,209571,-3.7268,-3.2602,9.4158,0.0159,-0.1710,0.1197,19.66
306741810887800,209583,-3.6933,-3.1992,9.5186,0.0733,-0.2028,0.1454,19.66
306741821921000,209594,-3.6586,-3.1155,9.6359,0.1258,-0.2407,0.1503,19.64
306741833882600,209605,-3.6933,-3.1418,9.7340,0.1564,-0.2749,0.1417,19.64
306741844875500,209616,-3.8010,-3.0520,9.8979,0.2040,-0.3005,0.1332,19.66
306741855900100,209628,-3.9230,-3.0006,9.9302,0.3555,-0.3128,0.1356,19.66
306741866980400,209639,-4.0271,-3.0150,10.0762,0.4105,-0.2786,0.1588,19.66
306741878926300,209650,-4.2520,-3.1621,10.0176,0.4936,-0.2126,0.2089,19.68
306741889913100,209661,-4.3178,-2.7362,10.0582,0.7685,-0.1442,0.2676,19.68
306741900875900,209673,-4.5823,-2.8834,10.1097,0.7880,-0.0806,0.3299,19.68
306741912837500,209684,-4.6098,-3.0820,10.1683,0.8125,-0.0098,0.4068,19.68
306741923941500,209695,-4.5188,-3.1813,10.3454,0.9175,0.0354,0.4960,19.65
306741934879200,209707,-4.5320,-2.3557,10.1659,1.3977,0.0806,0.7306,19.65
306741946806600,209718,-4.5176,-1.9466,9.7615,1.5577,0.0916,0.8393,19.72
306741957984000,209729,-4.3513,-1.6164,9.6299,1.6041,0.0855,0.9334,19.66
306741968954000,209740,-4.0522,-1.5230,9.4289,1.5882,0.0648,1.0079,19.66
306741979912900,209752,-3.5952,-0.8674,9.2399,1.5797,0.0122,1.0519,19.71
306741991967800,209763,-2.9731,-0.4367,9.1059,1.4013,-0.0538,1.0434,19.71
306742002908700,209774,-2.4706,-0.0215,8.8008,1.2963,-0.1100,0.9798,19.68
306742013919800,209785,-2.1033,0.5145,8.0842,1.2315,-0.1808,0.8674,19.68
306742024875000,209797,-1.4967,0.4187,8.2110,0.5424,-0.3934,0.5877,19.71
306742036901800,209808,-1.2275,-0.1663,8.6764,0.0941,-0.4875,0.4667,19.64
306742047937900,209819,-1.0839,-0.9823,9.4325,-0.2590,-0.5192,0.3677,19.64
306742058925000,209830,-1.0493,-1.6905,10.0774,-0.3751,-0.4667,0.3018,19.66
306742070920000,209842,-1.1330,-2.0830,10.4518,-0.2615,-0.3519,0.2615,19.66
306742081985500,209853,-1.4046,-2.2660,10.5392,-0.0232,-0.2138,0.2468,19.68
306742092977200,209864,-1.6606,-2.0925,10.6624,0.2468,-0.0819,0.2578,19.68
306742104952100,209875,-2.5388,-1.8245,10.7988,0.4154,0.0501,0.2749,19.65
306742115885400,209888,-2.9420,-1.5422,10.6780,0.8137,0.3152,0.3189,19.66
306742126992000,209899,-3.4624,-1.1701,10.4303,1.0201,0.4300,0.3592,19.66
306742138888500,209910,-3.8883,-0.9069,10.1719,1.1643,0.5082,0.4044,19.70
306742149939300,209922,-4.3609,-0.6437,9.9984,1.2730,0.5596,0.4655,19.70
306742161027500,209933,-4.6134,-0.2094,10.0606,1.4636,0.6158,0.5424,19.67
306742172841500,209944,-4.8299,-0.0814,10.2832,1.3427,0.7086,0.6597,19.67
306742183870200,209955,-5.3755,-0.7083,9.3811,1.4099,0.8870,0.8271,19.71
306742194963600,209967,-5.3659,-0.2297,8.9109,1.6652,1.0825,1.2388,19.71
306742206119600,209978,-5.2439,0.5180,8.3964,2.0085,1.1777,1.4331,19.65
306742217891600,209989,-5.3396,0.9272,7.5326,2.1014,1.2633,1.6225,19.66
306742229043700,210000,-5.1111,1.2514,6.9512,2.0574,1.2901,1.8277,19.66
306742239993200,210012,-5.1661,1.7671,6.6473,1.9206,1.2669,2.0476,19.65
306742251895800,210023,-5.2893,2.5424,6.7035,1.7324,1.1912,2.2187,19.65
306742262960800,210034,-4.7737,2.0315,6.8566,1.4942,1.0702,2.2907,19.67
306742273910400,210045,-4.6792,1.5075,6.9954,1.4563,0.9102,2.3054,19.67
306742285114800,210057,-4.4291,2.3785,7.3017,2.4752,0.8406,2.3152,19.67
306742297076000,210068,-4.7725,2.0997,7.6199,2.9028,0.9591,2.3860,19.68
306742308091500,210079,-4.5763,2.4191,7.6953,3.4709,1.1496,2.4777,19.68
306742319106700,210091,-4.4471,2.6154,7.8281,3.9657,1.3891,2.5888,19.70
306742330208000,210102,-4.5978,2.9970,7.6391,4.4068,1.6848,2.7465,19.70
306742342247800,210113,-4.9256,4.0427,6.9212,4.6389,2.0244,2.9346,19.70
306742353144800,210124,-5.0297,5.7200,6.2297,4.3029,2.3042,3.0763,19.70
306742363976700,210136,-5.1063,7.0373,4.7797,3.2205,2.5375,3.1203,19.67
306742375208100,210147,-3.1825,8.0794,4.5990,1.3916,2.4007,2.8136,19.64
306742387169200,210158,-3.7376,7.6247,5.0118,-0.1161,2.3421,2.4801,19.64
306742398100500,210169,-3.4732,6.5109,5.1757,-1.1716,2.3213,2.1735,19.70
306742409127700,210181,-3.4038,6.2704,5.1864,-1.2950,2.2480,2.0378,19.70
306742421085600,210192,-3.6479,6.9942,5.1506,-0.7624,2.0269,2.0171,19.65
306742432153800,210203,-3.6443,7.7276,5.3946,-0.5608,1.7678,1.9340,19.65
306742443195400,210214,-4.2162,7.4512,5.7212,-0.9664,1.5711,1.8033,19.69
306742454380900,210226,-4.4495,6.6341,5.7858,-1.0397,1.2706,1.7727,19.69
306742466122600,210237,-4.3777,6.7370,6.4798,-0.5669,0.7697,1.7006,19.72
306742477259100,210248,-4.1204,5.9210,6.6078,-0.4936,0.7025,1.4978,19.64
306742488346900,210259,-3.6383,5.8265,6.3278,-0.2859,0.7037,1.3268,19.64
306742500073500,210271,-3.1573,5.5609,6.2177,-0.2492,0.7367,1.2523,19.68
306742511053800,210282,-2.8463,5.7069,6.5372,-0.1222,0.8308,1.2694,19.68
306742521981800,210293,-2.4562,6.3589,7.0696,0.0757,0.9591,1.3451,19.67
306742533023500,210305,-2.7039,7.0301,7.2921,0.4569,1.1215,1.3854,19.67
306742544970000,210316,-4.5057,6.9655,5.6997,0.5376,1.2975,1.3134,19.67
306742556141400,210327,-5.0046,6.7729,5.4437,-0.6927,1.0214,1.3268,19.64
306742567165600,210338,-4.7007,6.1017,5.6243,-1.1680,0.6842,1.3354,19.64
306742579022000,210350,-4.7246,6.0203,5.7200,-1.5345,0.5009,1.4209,19.65
306742589889700,210361,-3.9302,5.9438,6.0395,-2.1014,0.3836,1.5479,19.65
306742601018100,210372,-2.9420,6.6174,6.3984,-2.7819,0.2871,1.6579,19.63
306742611938600,210383,-1.2742,8.9204,6.8518,-3.7397,0.1747,1.6017,19.63
306742623969400,210395,-1.3579,8.3031,6.5683,-5.9901,-0.0183,1.2425,19.68
306742635166300,210406,-2.0818,3.2686,7.6379,-6.8038,-0.0916,0.6634,19.68
306742646117500,210417,-2.4802,2.9444,8.3474,-5.6652,-0.1662,0.6463,19.61
306742658185800,210428,-2.5137,2.9815,8.9396,-4.5448,-0.1051,0.6732,19.66
306742669651500,210440,-3.2841,2.3031,9.6526,-3.8521,0.0953,0.6304,19.66
306742680229800,210451,-3.1131,2.6931,9.0197,-3.4453,0.2028,0.5925,19.70
306742691355200,210462,-3.1741,2.0339,9.2698,-3.5015,0.2651,0.5938,19.70
306742703072900,210473,-3.5186,1.4548,9.8010,-3.2046,0.2431,0.6329,19.68
306742714204900,210485,-4.0008,2.1715,9.8859,-2.4740,0.2114,0.6744,19.68
306742725167700,210496,-4.3693,2.5460,9.5186,-1.3757,0.1625,0.7110,19.67
306742736181000,210507,-3.9637,2.6955,9.4756,-1.2645,0.0770,0.6439,19.67
306742747885500,210520,-3.3643,2.3545,9.3811,-1.3146,0.0305,0.4508,19.67
306742759025100,210531,-2.8810,2.0124,9.0796,-1.2926,0.0086,0.1955,19.65
306742770091000,210542,-2.3833,1.3902,8.7673,-1.2999,0.0049,-0.0403,19.65
306742781963700,210553,-2.0578,0.3793,8.9647,-1.0653,0.0257,-0.2505,19.70
306742792999100,210565,-2.5639,-0.3625,9.4624,-0.5339,0.0379,-0.3995,19.70
306742804176400,210576,-3.1334,0.8710,9.9697,-0.0024,-0.0049,-0.4191,19.67
306742815038000,210587,-3.2219,1.4489,9.8489,0.2944,-0.0550,-0.1735,19.69
306742826980700,210598,-3.3416,1.4991,9.8728,0.1564,-0.0867,-0.0232,19.69
306742838034200,210610,-3.3344,1.5099,9.7400,0.1319,-0.1381,0.1002,19.70
306742849076100,210621,-3.5486,1.8843,9.3416,0.2370,-0.1967,0.1637,19.70
306742861062400,210632,-3.6431,2.4814,9.1956,0.3690,-0.2602,0.1539,19.68
306742872026700,210643,-2.4407,3.6658,9.3272,0.3213,-0.2761,0.1527,19.68
306742883149700,210655,-3.0269,1.7587,10.4279,-0.0929,-0.0171,0.4606,19.70
306742894282300,210666,-2.3833,3.5785,8.0088,0.4019,0.0843,0.3604,19.70
306742906116100,210677,-1.5039,3.7196,8.4826,-0.1698,0.0305,0.3225,19.70
306742917149700,210689,-2.0901,3.6933,8.9408,-0.3457,0.0904,0.2480,19.68
306742928167500,210700,-3.3320,3.7579,8.4371,-0.4936,0.1796,0.1637,19.68
306742939225100,210711,-0.6042,2.9599,8.9551,-1.0214,0.2321,0.1112,19.71
306742951064600,210722,-0.3805,2.7494,10.5535,-1.2718,0.2847,-0.0696,19.71
306742962094400,210734,-1.6570,1.7432,11.1613,-0.9737,0.4936,-0.3983,19.70
306742973263600,210745,-2.7565,2.2146,10.4195,-0.1087,0.7453,-0.7428,19.70
306742985013200,210756,-4.2030,2.4754,9.4576,0.0880,0.8772,-1.1179,19.71
306742995985800,210767,-4.4160,1.9214,9.3200,-0.4386,0.8283,-1.1973,19.69
306743007254800,210779,-4.8000,1.2502,9.6132,-0.8955,0.7110,-1.2291,19.69
306743018972200,210790,-5.7093,0.4499,9.9601,-1.1460,0.6084,-1.2914,19.67
306743029974700,210801,-5.6363,-0.1041,9.6108,-1.1057,0.4508,-1.3146,19.67
306743040937700,210812,-5.0441,0.1113,9.6503,-0.7563,0.2321,-1.2205,19.71
306743052049100,210824,-3.9027,0.4008,9.9589,-0.5718,0.1087,-1.0507,19.71
306743064027300,210835,-3.1238,0.0706,11.0273,-0.7868,0.1906,-0.7159,19.70
306743074913600,210846,-7.0469,-0.9356,9.4098,-0.6280,0.5901,0.0415,19.71
306743086015500,210857,-5.2750,-0.0275,8.5531,0.3164,0.5815,0.4019,19.71
306743097015000,210869,-3.3978,-0.7896,9.2243,1.2034,0.5034,0.7233,19.69
306743108913900,210880,-3.7998,0.0766,10.1145,2.6365,0.5596,1.0324,19.69
306743119982300,210891,-4.8168,0.1591,10.0116,3.5980,0.7624,1.2095,19.72
306743131108100,210903,-6.0622,3.0353,9.0676,4.0708,0.9652,1.3586,19.72
306743142981900,210914,-4.6971,4.6062,8.3761,2.8760,1.0751,1.6249,19.70
306743153926500,210925,-4.1719,3.7077,7.7396,1.2559,1.1203,1.7483,19.70
306743165052000,210936,-4.1324,4.2293,7.1282,0.0660,0.8931,1.4465,19.70
306743176137600,210948,-3.1490,3.7496,6.4259,-0.6695,0.6267,1.1729,19.66
306743188051800,210959,-2.5974,3.7017,6.3589,-1.1655,0.3005,0.9139,19.66
306743198851100,210970,-2.7063,3.7041,6.8411,-1.4478,0.0122,0.6194,19.68
306743209951100,210981,-3.2937,3.1525,7.7468,-1.5614,-0.1381,0.3152,19.68
306743221990200,210993,-3.5498,1.8664,8.5926,-1.1350,-0.1356,0.0672,19.70
306743233048300,211004,-2.6237,1.0349,8.7194,-0.2651,-0.0599,-0.0440,19.70
306743244125200,211015,-2.4802,2.7625,7.7743,0.3311,0.0428,0.0098,19.68
306743255362500,211026,-2.6225,3.1848,7.4883,-0.1454,0.1662,-0.0586,19.73
306743267085800,211038,-2.7422,3.7065,7.5577,-0.4398,0.1906,-0.1747,19.73
306743278207300,211049,-3.1454,4.1276,7.4249,-0.8344,0.2688,-0.2712,19.69
306743289282700,211060,-3.3918,3.5916,7.8652,-1.3757,0.4643,-0.2969,19.69
306743301086900,211072,-3.3488,2.7147,8.4694,-1.7312,0.7025,-0.2578,19.71
306743312115600,211083,-3.4935,2.0016,8.5555,-1.8057,0.9077,-0.1894,19.71
306743323268700,211094,-3.6754,1.8580,8.6261,-1.6029,1.0934,-0.1429,19.68
306743334243500,211105,-4.5595,2.2756,8.5376,-0.9786,1.3231,-0.1686,19.68
306743346127600,211117,-4.4973,2.3186,8.6297,-1.3305,1.3402,-0.1943,19.71
306743357147600,211128,-5.8875,1.6762,9.0760,-1.5760,1.3415,-0.2663,19.70
306743368256700,211139,-6.3924,1.1139,9.2746,-1.3366,1.3586,-0.4129,19.70
306743380067200,211151,-6.5946,0.9392,9.3141,-0.8821,1.3842,-0.5510,19.67
306743391157800,211163,-7.0193,0.5324,9.2243,-0.5828,1.3989,-0.6720,19.67
306743402243500,211174,-7.0134,0.1866,9.3452,-0.3629,1.4172,-0.7746,19.69
306743414180600,211185,-7.1139,0.0909,8.6010,-0.2065,1.4233,-0.8784,19.69
306743425204200,211196,-7.2909,-0.2213,8.2241,-0.2492,1.3928,-1.0678,19.72
306743436311000,211208,-7.3926,-0.6688,7.8748,-0.2395,1.3011,-1.1142,19.72
306743447102100,211219,-7.5326,-0.7669,7.3149,-0.3421,1.1118,-1.0947,19.72
306743459153200,211230,-8.1476,-1.9370,7.0564,-0.7844,0.8406,-0.9823,19.62
306743470093200,211241,-8.0279,-2.7099,7.2479,-0.9200,0.5473,-0.7868,19.62
306743481255600,211253,-8.2122,-3.2973,7.4991,-0.6878,0.2651,-0.5046,19.66
306743493036800,211264,-8.0423,-3.0891,7.6989,-0.2969,0.0183,-0.1466,19.66
306743504080700,211275,-6.6317,-0.4104,8.2265,0.4105,-0.1344,0.5156,19.69
306743515217900,211287,-6.6437,1.2455,8.4849,0.8772,-0.0415,0.6267,19.69
306743526533500,211298,-6.6544,2.6477,7.7839,1.2523,0.0733,0.5327,19.69
306743538156100,211309,-6.3733,3.5593,7.2730,0.9383,0.1063,0.4068,19.71
306743549086300,211320,-6.6293,2.5436,7.4333,0.2162,0.0428,0.2529,19.71
306743560116300,211332,-6.3517,2.2265,7.6881,0.1307,-0.0354,0.1026,19.69
306743571068000,211343,-6.4834,1.9992,7.5350,0.2578,-0.1100,0.0220,19.69
306743582893400,211354,-6.0682,2.2038,7.4704,0.0660,-0.1759,-0.0073,19.74
306743593948700,211365,-6.1998,0.8219,7.7157,-0.5828,-0.2346,-0.0464,19.74
306743604857800,211377,-6.3051,-0.5862,8.1356,-0.8259,-0.2236,-0.1222,19.67
306743617441600,211388,-6.0299,0.1627,8.2708,0.0709,-0.1258,-0.1197,19.73
306743627948200,211399,-6.0347,0.6532,7.9597,0.2456,-0.0171,-0.0831,19.73
306743639595800,211410,-6.1352,0.2369,7.6702,0.0794,0.0452,-0.0831,19.68
306743650073200,211422,-6.2871,0.1615,7.5829,0.1417,0.0599,-0.0782,19.68
306743662074700,211433,-6.4570,0.3589,7.4716,0.2126,0.0391,-0.0672,19.72
306743673289100,211444,-6.6066,0.5874,7.2622,0.0195,-0.0061,-0.0513,19.72
306743684318600,211456,-6.4487,-0.1567,7.5434,0.1295,-0.0696,-0.0232,19.70
306743695170900,211467,-6.1627,0.2249,7.6295,0.1429,-0.0244,0.0159,19.72
306743707198100,211478,-6.2524,0.3793,7.3986,0.0696,0.0525,0.0183,19.72
306743718174400,211489,-6.4008,0.2979,7.1868,0.0415,0.1185,0.0037,19.70
306743729409100,211501,-6.4499,0.2357,7.0636,0.0672,0.1454,-0.0037,19.70
306743740413200,211512,-6.5791,0.4941,7.1569,0.0977,0.1552,-0.0049,19.70
306743751914500,211523,-6.7214,0.8219,7.2933,0.0953,0.1710,-0.0012,19.70
306743762997700,211534,-6.8004,0.8997,7.2323,0.0611,0.1845,0.0049,19.72
306743774139300,211546,-6.7908,0.7681,7.1450,0.0232,0.1625,0.0415,19.72
306743785208800,211557,-6.9619,0.6843,7.1904,0.0183,0.1478,0.0660,19.72
306743797052100,211568,-7.0672,0.7298,7.1761,0.0538,0.1258,0.0757,19.72
306743808135100,211579,-7.1653,0.9631,7.1773,0.0806,0.0953,0.0745,19.72
306743818877400,211591,-7.3639,1.1952,7.3077,0.0428,0.0440,0.0452,19.73
306743829958600,211602,-7.4189,1.2168,7.4931,0.0110,-0.0110,-0.0098,19.73
306743842032800,211613,-7.2407,1.1521,7.6989,0.0049,-0.0501,-0.0635,19.73
306743852987900,211624,-7.2395,1.0624,7.7886,-0.0660,-0.0757,-0.1002,19.73
306743864003100,211636,-7.1258,0.5731,7.5506,-0.1319,-0.0990,-0.0929,19.68
306743875202700,211647,-6.9212,0.3721,7.4178,-0.1075,-0.1210,-0.0672,19.70
306743887154100,211658,-6.5862,0.4463,7.4955,-0.0696,-0.1307,-0.0293,19.70
306743898031400,211670,-6.3206,0.3410,7.5027,-0.1283,-0.1087,0.0147,19.71
306743909206200,211681,-6.1890,0.2955,7.4871,-0.1894,-0.0635,0.0586,19.71
306743920233400,211692,-6.3290,0.4630,7.4022,-0.2285,-0.0183,0.0782,19.68
306743932086600,211703,-6.0407,-0.2752,7.3053,-0.1356,0.0098,0.0977,19.68
306743943147700,211715,-6.4594,1.0217,7.2646,0.4948,0.0269,0.2395,19.73
306743954206800,211726,-7.0911,1.2766,7.6116,0.0012,0.0525,0.1759,19.69
306743965089500,211737,-7.0720,1.1653,7.2395,0.0403,0.0513,0.0855,19.69
306743977030900,211748,-6.9428,0.9583,7.3184,0.0220,0.0134,0.0428,19.70
306743987964600,211760,-6.8124,0.7394,7.3005,0.0086,-0.0220,0.0318,19.70
306743999010700,211771,-6.7956,0.5515,7.4345,-0.0134,-0.0305,0.0086,19.73
306744010126100,211782,-6.8530,0.5623,7.4010,-0.0354,-0.0208,-0.0611,19.73
306744021899300,211793,-7.0732,0.4451,7.1151,-0.1100,-0.0269,-0.1662,19.73
306744033088500,211805,-7.1581,0.3410,7.2598,-0.1649,-0.0538,-0.2761,19.73
306744044111300,211816,-7.0241,0.2871,7.2526,-0.0904,-0.1319,-0.3372,19.73
306744056023400,211827,-7.0409,0.4128,7.4740,-0.0855,-0.1344,-0.3079,19.72
306744067079500,211838,-6.9619,0.3936,7.5075,-0.0525,-0.1210,-0.2480,19.72
306744078069300,211850,-6.8877,0.3290,7.4345,-0.0379,-0.1222,-0.1820,19.74
306744089016800,211861,-6.8698,0.2979,7.3711,-0.0281,-0.1442,-0.1405,19.74
306744100998800,211872,-6.6951,0.3577,7.4130,0.0354,-0.1747,-0.1246,19.67
306744111997500,211884,-6.5647,0.6712,7.5350,0.1222,-0.1943,-0.1246,19.67
306744123074900,211895,-6.5611,1.0337,7.5972,0.1161,-0.1955,-0.1283,19.68
306744134945300,211906,-6.5683,1.0205,7.6116,0.0159,-0.2016,-0.1258,19.76
306744145882500,211917,-6.5468,1.0672,7.7181,0.0342,-0.1967,-0.1185,19.76
306744157092500,211929,-6.5240,1.1043,7.7073,0.0611,-0.1759,-0.1002,19.72
306744168133800,211940,-6.4343,1.1486,7.6152,0.0354,-0.1600,-0.0794,19.72
306744179903200,211951,-6.3470,1.0624,7.5589,-0.0208,-0.1478,-0.0586,19.73
306744191004100,211962,-6.3601,0.9727,7.6774,-0.0428,-0.1136,-0.0244,19.73
306744201947700,211974,-6.5133,0.7466,7.7121,-0.0782,-0.0806,0.0159,19.77
306744212940400,211985,-6.4857,0.6030,7.6187,-0.0892,-0.0696,0.0648,19.77
306744224896200,211996,-6.5695,0.1555,7.7527,-0.1784,-0.0599,0.1271,19.76
306744235959100,212007,-6.5468,0.6365,7.6582,0.0562,-0.0037,0.1283,19.68
306744247012000,212019,-6.6580,0.9619,7.3974,0.0990,0.0611,0.1185,19.68
306744258034100,212030,-6.9165,0.7214,7.3184,0.0232,0.1026,0.0990,19.74
306744270145600,212041,-7.1617,0.5587,7.2467,0.0220,0.0953,0.0880,19.74
306744281007300,212052,-7.1713,0.3410,7.2395,0.0525,0.0586,0.0904,19.73
306744292125000,212064,-7.1186,0.2644,7.2921,0.1051,0.0208,0.0953,19.73
306744303082400,212075,-6.7322,0.4618,7.2849,0.1491,-0.0293,0.0916,19.72
306744314990000,212086,-6.6245,0.6006,7.4692,0.1906,-0.0476,0.0941,19.71
306744326038200,212098,-6.6042,0.6939,7.5422,0.1820,0.0012,0.1234,19.71
306744337359200,212109,-6.7310,0.7023,7.3890,0.1197,0.0305,0.1527,19.73
306744348196100,212120,-6.7178,0.7370,7.4189,0.1014,0.0220,0.1784,19.73
306744360199200,212131,-6.7478,0.8303,7.5266,0.1173,0.0061,0.1979,19.72
306744371288000,212143,-6.7442,0.9009,7.5912,0.1307,0.0000,0.2077,19.72
306744382064600,212154,-6.6150,1.7934,7.1833,-0.0391,-0.0232,0.2175,19.73
306744393380100,212165,-6.4834,1.0062,7.6211,-0.3470,-0.0428,0.1649,19.73
306744405164100,212176,-6.5755,1.0469,7.5027,0.1344,0.0391,0.0916,19.71
306744416136500,212188,-6.6652,0.4726,7.4776,0.0342,0.0501,0.1038,19.77
306744427247800,212199,-6.6963,0.6353,7.4178,0.1332,0.0195,0.1429,19.77
306744438180300,212209,-6.5934,0.8040,7.5338,0.1625,-0.0171,0.1784,19.70
306744449984500,212220,-6.4176,0.9595,7.7121,0.1527,-0.0208,0.2028,19.70
306744461221800,212232,-6.2812,0.9607,7.7181,0.1417,0.0061,0.1979,19.76
306744472238300,212243,-6.3506,1.0397,7.5888,0.1295,0.0367,0.1772,19.76
306744483117500,212254,-6.5492,1.2538,7.4142,0.1063,0.0586,0.1344,19.70
306744495128100,212265,-6.5575,1.1856,7.5302,0.0159,0.0953,0.1112,19.72
306744506064200,212277,-6.6855,1.0552,7.6020,0.0122,0.1515,0.1075,19.72
306744517088500,212288,-6.8291,0.8830,7.5194,0.0476,0.2101,0.1344,19.72
306744528265400,212299,-7.0062,0.7155,7.1390,0.0794,0.2016,0.1906,19.72
306744540050400,212311,-6.5862,0.8471,7.0576,0.1649,0.1100,0.2627,19.68
306744550934100,212322,-6.9153,1.5565,7.6295,0.2456,0.1185,0.2700,19.68
306744562295400,212333,-6.6461,1.2957,7.1689,0.2407,0.0892,0.2517,19.77
306744573285600,212344,-6.7107,1.1103,6.7406,0.2407,0.1454,0.1564,19.77
306744584974400,212356,-6.6114,1.6881,7.2909,0.1295,0.1319,0.1393,19.73
306744596159200,212367,-6.8889,1.1402,6.8088,0.0037,0.1075,0.1026,19.73
306744607241100,212378,-6.7274,1.4094,7.1749,0.0550,0.1161,0.0745,19.73
306744618075800,212389,-7.2802,1.0050,6.8076,-0.0232,0.1063,0.0318,19.70
306744630048900,212401,-6.6808,1.0540,7.1737,0.0367,0.1075,0.0269,19.70
306744640995000,212412,-7.4178,0.8722,7.0708,-0.0147,0.1674,-0.0098,19.73
306744651981600,212423,-6.8937,0.5408,6.6951,-0.0244,0.1319,-0.0367,19.73
306744663469500,212434,-7.5398,0.3147,6.6174,0.0159,0.2028,-0.1979,19.71
306744675114600,212446,-7.3484,-0.2237,6.2824,-0.0122,0.1100,-0.1869,19.71
306744685983200,212457,-7.4022,0.5539,7.1019,0.1124,0.0562,-0.1271,19.71
306744697183100,212468,-7.8305,0.8530,7.1665,0.0635,0.0330,-0.1112,19.74
306744708260400,212480,-7.7635,0.7346,6.9440,0.0806,0.0110,-0.0464,19.74
306744719990400,212491,-7.3424,0.8841,6.9212,0.1271,-0.0428,0.0550,19.73
306744731122100,212502,-7.0158,1.4213,7.0612,0.1845,-0.0794,0.1234,19.73
306744742242200,212513,-6.5659,1.7049,7.1318,0.1930,-0.0525,0.1234,19.72
306744753219800,212525,-6.4283,1.8054,6.8495,0.1491,0.0476,0.0073,19.72
306744765062500,212536,-6.6425,1.6702,6.9930,-0.0110,0.0538,-0.0586,19.73
306744776201800,212547,-6.9619,1.4393,7.1916,-0.0794,0.0525,-0.1026,19.69
306744787141300,212558,-7.2634,1.1928,7.2275,-0.1197,0.0354,-0.1197,19.69
306744798184600,212570,-7.3567,1.0134,7.1366,-0.1063,-0.0049,-0.1136,19.71
306744810231200,212581,-7.1569,0.8913,7.1474,-0.0611,-0.0330,-0.0819,19.71
306744821252900,212592,-6.9236,0.8698,7.1976,-0.0159,-0.0257,-0.0305,19.76
306744832128800,212603,-6.8997,0.8758,7.0134,-0.0049,0.0147,0.0098,19.76
306744843346500,212615,-7.0828,1.2275,6.8518,0.0061,0.0672,0.0061,19.75
306744854964400,212626,-7.1844,1.1593,6.8830,-0.0452,0.0599,-0.0147,19.71
306744866031900,212637,-7.1797,1.0816,6.9571,-0.0599,0.0367,-0.0220,19.71
306744877366300,212648,-7.1426,1.1163,7.0756,-0.0513,0.0257,-0.0232,19.70
306744888996400,212660,-7.1031,1.2239,7.1151,-0.0269,0.0305,-0.0281,19.70
306744900131800,212671,-7.0516,1.3029,6.9392,-0.0318,0.0379,-0.0318,19.71
306744911169400,212682,-6.9200,1.2371,6.9248,-0.0586,0.0476,-0.0330,19.71
306744922266400,212694,-6.9906,1.2945,6.9739,-0.0770,0.0611,-0.0367,19.74
306744934044300,212705,-7.2491,1.0792,6.9045,-0.1100,0.1136,-0.0379,19.74
306744945208400,212716,-7.1701,1.0421,6.9069,-0.0770,0.1258,-0.0195,19.74
306744956216700,212727,-7.2251,1.1892,6.8973,-0.0721,0.1283,-0.0024,19.70
306744967303900,212739,-7.2179,1.1713,6.8806,-0.1087,0.1210,-0.0208,19.70
306744979119700,212750,-7.2682,1.1677,6.9512,-0.1210,0.1124,-0.0489,19.75
306744990067000,212761,-7.2885,0.9846,6.8937,-0.1295,0.1087,-0.0672,19.75
306745001066800,212772,-7.2455,0.9105,6.8686,-0.0941,0.1210,-0.0574,19.75
306745012383800,212784,-7.3388,0.9320,6.6317,-0.0538,0.1197,-0.0501,19.75
306745024099500,212795,-7.4895,1.0911,6.6640,-0.0269,0.0220,-0.0867,19.73
306745035032200,212806,-7.4501,0.9452,6.6915,-0.0232,-0.0305,-0.1002,19.74
306745046256100,212817,-7.4979,0.7896,6.7274,-0.0122,-0.0757,-0.0977,19.74
306745058074700,212829,-7.4644,0.8471,6.7573,0.0269,-0.1051,-0.0782,19.72
306745069136000,212840,-7.3615,0.9476,6.8315,0.0623,-0.1197,-0.0489,19.72
306745080289500,212851,-7.1139,1.0851,6.8937,0.0867,-0.1197,-0.0305,19.73
306745091291400,212862,-6.9858,1.1294,6.9679,0.0770,-0.0916,-0.0269,19.73
306745102990100,212874,-7.0313,1.1007,6.9177,0.0464,-0.0538,-0.0318,19.73
306745114306300,212885,-7.1390,1.0875,6.9404,0.0073,-0.0024,-0.0232,19.70
306745125240500,212896,-7.1438,1.0588,7.0050,0.0049,0.0232,-0.0220,19.70
306745136192400,212908,-7.1486,1.0983,6.9811,0.0171,0.0538,-0.0244,19.74
306745147972300,212919,-7.0899,1.1545,6.8949,0.0147,0.0819,-0.0257,19.74
306745158963400,212930,-7.1402,1.1127,6.7956,-0.0220,0.1051,-0.0318,19.76
306745170027800,212941,-7.2742,1.0540,6.6712,-0.0525,0.1087,-0.0440,19.76
306745181035300,212953,-7.4166,1.0684,6.6497,-0.0794,0.0904,-0.0574,19.74
306745193039600,212964,-7.3436,1.0995,6.7944,-0.0977,0.0709,-0.0696,19.74
306745203980000,212975,-7.2335,1.0600,6.7466,-0.1234,0.0855,-0.0990,19.74
306745215108700,212986,-7.3101,0.9751,6.6712,-0.1491,0.0916,-0.1222,19.73
306745226158000,212998,-7.3376,0.8207,6.6269,-0.1405,0.0806,-0.1344,19.73
306745238101900,213009,-7.3807,0.6867,6.7190,-0.1014,0.0623,-0.1295,19.71
306745248984700,213020,-7.3388,0.7406,6.8770,-0.0391,0.0660,-0.1136,19.71
306745260144400,213031,-7.3819,0.6832,6.8925,-0.0037,0.0916,-0.0977,19.75
306745271048100,213043,-7.4441,0.6437,6.7238,0.0428,0.1148,-0.0819,19.75
306745282879100,213054,-7.4345,0.8363,6.6269,0.1014,0.0880,-0.0672,19.75
306745294145400,213065,-7.3878,0.9607,6.8650,0.1759,-0.0684,-0.0428,19.73
306745305100700,213076,-7.4357,0.8722,6.3553,0.1723,-0.0525,-0.1026,19.73
306745315905700,213088,-7.3292,0.9153,6.4104,0.1784,-0.0794,-0.0965,19.73
306745327845100,213099,-7.4213,0.9691,6.6580,0.1124,-0.1161,-0.1112,19.73
306745338950400,213110,-7.4261,0.8171,6.7023,0.1295,-0.1148,-0.1283,19.78
306745349929200,213122,-7.3938,1.0181,6.7549,0.1442,-0.1136,-0.1271,19.78
306745361830000,213133,-7.3711,1.2706,6.6951,0.1063,-0.1075,-0.1356,19.69
306745373020500,213144,-7.3220,0.9894,6.6353,0.0428,-0.1124,-0.1943,19.69
306745383994800,213155,-7.4213,0.8028,6.5755,0.0208,-0.1552,-0.2407,19.77
306745395297500,213167,-7.1904,0.8279,6.8614,0.0672,-0.1600,-0.2443,19.73
306745407100300,213178,-7.2491,0.7836,6.8423,0.0757,-0.1649,-0.2492,19.73
306745418197100,213189,-7.2981,0.7777,6.7454,0.0904,-0.1723,-0.2773,19.71
306745429090100,213200,-7.2634,0.7932,6.7442,0.1112,-0.1796,-0.2969,19.71
306745440295500,213212,-7.2754,0.7621,6.8806,0.1087,-0.1772,-0.2773,19.71
306745452029700,213223,-7.2479,0.8530,6.7765,0.0880,-0.1759,-0.2639,19.71
306745463128600,213234,-7.2407,1.0636,6.7298,0.0721,-0.1881,-0.2883,19.77
306745474089100,213245,-7.4381,1.1091,6.6042,-0.0244,-0.1943,-0.3128,19.69
306745486056400,213257,-7.4010,0.6796,6.7537,-0.0892,-0.2004,-0.3372,19.69
306745496930900,213268,-7.3854,0.6138,6.9595,-0.0501,-0.1930,-0.3225,19.71
306745508134000,213279,-7.2778,0.6497,6.9236,-0.0110,-0.1735,-0.3005,19.71
306745519007300,213291,-7.1856,0.7872,6.7789,0.0000,-0.1613,-0.2859,19.64
306745530869400,213302,-7.2538,0.7274,6.7741,-0.0098,-0.1649,-0.2773,19.64
306745542054700,213313,-7.2419,0.6209,6.8447,-0.0024,-0.1698,-0.2688,19.68
306745553093300,213324,-7.3280,0.5623,6.9571,-0.0171,-0.1576,-0.2248,19.70
306745564979600,213336,-7.1868,0.5635,7.0397,0.0147,-0.1344,-0.1686,19.70
306745576080000,213347,-7.2993,0.6736,6.8231,0.0379,-0.1197,-0.1271,19.71
306745587046500,213358,-7.3448,0.9308,6.6832,0.0501,-0.1185,-0.1197,19.71
306745598076700,213369,-7.3400,0.5288,6.9260,0.0305,-0.1210,-0.1112,19.71
306745609960900,213381,-7.3244,0.5659,6.8459,0.0415,-0.1038,-0.0831,19.71
306745620933900,213392,-7.4178,0.5121,6.7693,0.0208,-0.0977,-0.0770,19.74
306745632112000,213403,-7.1821,0.5683,6.8698,-0.0220,-0.0953,-0.0672,19.74
306745643284400,213414,-7.2514,0.6891,6.9835,0.0428,-0.0880,-0.0684,19.71
306745655086600,213426,-7.3077,0.7322,6.9105,0.0134,-0.0757,-0.0611,19.72
306745666089200,213437,-7.3184,0.9045,6.8243,-0.0012,-0.0611,-0.0550,19.72
306745677175100,213448,-7.3029,0.5958,6.8279,-0.0599,-0.0562,-0.0611,19.70
306745688244700,213459,-7.3065,0.4427,6.8830,-0.0635,-0.0525,-0.0574,19.70
306745700084800,213471,-7.2933,0.4642,6.8172,-0.0660,-0.0476,-0.0367,19.73
306745711074000,213482,-7.3232,0.6616,6.7190,-0.0806,-0.0525,-0.0257,19.73
306745722148000,213493,-7.4859,0.2201,7.2239,-0.1063,-0.0586,-0.0269,19.73
306745733190300,213505,-7.3077,0.6772,6.9667,0.0782,0.0281,0.1454,19.75
306745745000900,213516,-7.3890,0.9799,6.5743,0.0342,0.0428,0.1564,19.75
306745756126600,213527,-7.2060,0.8602,6.6269,0.0208,0.0318,0.1344,19.74
306745767159700,213538,-7.3627,0.3613,6.8949,-0.0244,0.0134,0.1234,19.74
306745778089200,213550,-7.4070,0.6018,6.9200,0.0073,0.0220,0.1332,19.74
306745790094700,213561,-7.2646,0.4223,6.8602,-0.0024,0.0379,0.1332,19.74
306745801108700,213572,-7.3783,0.4558,6.7932,0.0428,0.0476,0.1429,19.74
306745812212500,213583,-7.3639,0.8626,6.6664,0.0501,0.0440,0.1466,19.74
306745823246900,213595,-7.3591,0.6078,6.8315,0.0195,0.0354,0.1295,19.71
306745835058100,213606,-7.4273,0.7717,6.8291,0.0061,0.0464,0.1564,19.69
306745846118200,213617,-7.4285,0.8207,6.7669,-0.0110,0.0599,0.1588,19.69
306745857221800,213628,-7.4166,0.5910,6.8435,0.0037,0.0733,0.1576,19.70
306745868168200,213640,-7.2538,0.5085,6.9416,0.0586,0.0916,0.1918,19.70
306745879989700,213651,-7.2395,0.8100,6.6401,0.1026,0.0916,0.1967,19.72
306745891241200,213662,-7.5111,0.8590,6.6975,0.0880,0.0794,0.1613,19.72
306745902049800,213673,-7.2670,1.0074,6.6389,0.0782,0.0904,0.1784,19.72
306745913294500,213685,-7.1510,0.5384,6.7980,0.1124,0.1002,0.1662,19.71
306745924183700,213696,-7.4512,0.8171,6.7011,0.0574,0.0880,0.1784,19.71
306745936162300,213707,-7.4489,0.9165,6.7226,0.0134,0.0904,0.1552,19.69
306745947385100,213719,-7.4895,0.7992,6.5527,0.1002,0.1038,0.1515,19.69
306745958365200,213730,-7.4070,1.0684,6.7167,0.1112,0.1075,0.1747,19.71
306745969308500,213741,-7.5661,0.8674,6.8363,0.0648,0.1161,0.1845,19.71
306745981083300,213752,-7.3603,0.9942,6.9990,0.1466,0.1576,0.2150,19.70
306745992197800,213764,-7.4118,0.8064,6.3924,0.1063,0.1894,0.2224,19.70
306746003279500,213775,-7.4453,0.9105,6.3960,-0.0244,0.1368,0.1991,19.69
306746014838700,213786,-7.5769,0.8770,6.6257,-0.0232,0.1210,0.1894,19.71
306746026276800,213797,-7.4740,1.0110,6.6365,0.0293,0.1356,0.2016,19.71
306746037172600,213809,-7.3866,0.8901,6.5910,0.0098,0.1417,0.1930,19.71
306746048421400,213820,-7.3711,0.9942,6.5827,0.0305,0.1332,0.1869,19.71
306746059746800,213831,-7.4465,0.9153,6.4187,-0.0049,0.1148,0.1613,19.75
306746071099800,213842,-7.4453,1.0648,6.3278,-0.0086,0.0880,0.1429,19.75
306746082438800,213854,-7.3220,1.0325,6.5743,-0.0220,0.0648,0.1344,19.72
306746093614200,213865,-7.5159,1.1330,6.6066,-0.0574,0.0354,0.0867,19.70
306746105152100,213876,-7.5422,0.9655,6.5432,-0.0806,0.0464,0.0831,19.70
306746116275500,213888,-7.4189,0.9440,6.3434,0.1026,0.0623,0.1112,19.77
306746127529600,213899,-7.5171,1.1533,6.2453,-0.0024,0.0379,0.1148,19.77
306746138432400,213910,-7.5565,1.0923,6.4618,-0.0696,-0.0012,0.0574,19.76
306746150028200,213921,-7.4118,1.1234,6.5049,-0.0134,-0.0037,0.0415,19.76
306746161320800,213933,-7.5661,0.9416,6.3793,-0.0318,-0.0159,0.0220,19.72
306746172218500,213944,-7.4560,1.0672,6.4606,-0.0098,-0.0220,0.0318,19.72
306746183271500,213955,-7.4524,1.0696,6.4104,0.0147,-0.0330,-0.0073,19.73
306746195130800,213966,-7.4847,0.9176,6.4307,0.0305,-0.0501,-0.0171,19.73
306746206236600,213977,-7.5326,0.9165,6.6185,0.0611,-0.0586,-0.0122,19.73
306746217390200,213989,-7.4166,0.7382,6.6401,0.0831,-0.0476,-0.0012,19.71
306746228447800,214000,-7.2849,0.9009,6.1316,0.0929,-0.0562,0.0208,19.71
306746240137100,214010,-7.1605,1.2215,5.9749,0.0916,-0.1283,-0.0073,19.71
306746251186800,214023,-7.3149,1.4883,6.1878,0.1356,-0.2248,-0.0904,19.71
306746262223900,214034,-7.5422,1.0038,6.4857,0.1148,-0.2957,-0.1881,19.70
306746273427800,214045,-7.2586,0.9655,6.7765,0.0635,-0.3494,-0.2908,19.70
306746285387400,214056,-7.4213,0.9811,6.6604,0.0183,-0.3519,-0.3091,19.70
306746296291700,214068,-7.3747,1.1079,6.4522,0.0220,-0.3604,-0.3433,19.72
306746307337400,214079,-7.4142,1.1892,6.4702,0.0147,-0.3800,-0.3812,19.72
306746319009200,214090,-7.4249,1.1533,6.7131,-0.0110,-0.3885,-0.3958,19.73
306746330137400,214102,-7.6391,0.8483,6.6772,-0.0293,-0.3775,-0.4105,19.73
306746341143500,214113,-7.5015,0.7825,6.7621,0.0122,-0.3396,-0.3763,19.74
306746352871500,214124,-7.4261,1.1581,6.7561,0.0147,-0.2896,-0.3396,19.74
306746364155500,214135,-7.4225,1.0301,6.7131,-0.0476,-0.2700,-0.3360,19.72
306746375229300,214147,-7.4704,0.7789,6.5707,-0.0867,-0.2602,-0.3433,19.73
306746386367600,214158,-7.3508,0.7729,6.8937,-0.0721,-0.2566,-0.3225,19.73
306746398082000,214169,-7.4058,0.8686,6.7908,-0.0635,-0.2382,-0.3042,19.71
306746409017000,214180,-7.4632,0.6796,6.7585,-0.0660,-0.2162,-0.2932,19.71
306746420078800,214192,-7.4393,0.8028,6.7789,-0.0257,-0.1955,-0.2615,19.74
306746431905300,214203,-7.5960,0.7083,6.9296,-0.0538,-0.1857,-0.2810,19.74
306746443051200,214214,-7.3555,0.6030,6.8291,0.0049,-0.1686,-0.2871,19.70
306746454090300,214225,-7.3388,0.7597,6.8973,0.0208,-0.1503,-0.2456,19.70
306746465274200,214237,-7.3639,0.8662,6.7920,-0.0012,-0.1393,-0.2419,19.70
306746476967000,214248,-7.3149,0.5252,6.8255,-0.0147,-0.1319,-0.2590,19.73
306746488255700,214259,-7.2826,0.6257,6.8387,0.0269,-0.1271,-0.2236,19.73
306746499190700,214270,-7.3675,0.5934,6.7908,0.0208,-0.1185,-0.1906,19.70
306746510265500,214282,-7.3244,0.7669,6.7813,0.0562,-0.1148,-0.1649,19.70
306746522042900,214293,-7.4261,0.7035,6.7789,0.0367,-0.1100,-0.1637,19.71
306746533180000,214304,-7.4441,0.6556,6.8040,0.0440,-0.0843,-0.1319,19.79
306746544294800,214316,-7.4548,0.6556,6.7693,0.0574,-0.0660,-0.0929,19.79
306746555595400,214327,-7.4800,0.8506,6.7466,0.0452,-0.0562,-0.0757,19.72
306746566937100,214338,-7.2706,0.8339,6.8794,0.0293,-0.0428,-0.0916,19.72
306746577970500,214349,-7.3926,0.3781,6.9021,-0.0086,-0.0318,-0.1026,19.75
306746589144000,214361,-7.3101,0.3147,6.9631,0.0220,-0.0171,-0.0757,19.75
306746600907600,214372,-7.2263,0.3936,6.8028,0.0721,-0.0024,-0.0489,19.73
306746612071700,214383,-7.5673,0.5970,6.7848,0.0782,-0.0122,-0.0354,19.73
306746623187200,214394,-7.4142,0.6808,6.7837,0.0782,-0.0147,-0.0464,19.74
306746634293400,214406,-7.2275,0.8913,6.7801,0.0721,-0.0037,-0.0415,19.71
306746645984800,214417,-7.3484,0.8590,6.8100,-0.0049,-0.0098,-0.0391,19.71
306746657131000,214428,-7.3196,0.7442,6.9870,-0.0574,-0.0024,-0.0269,19.73
306746668009300,214439,-7.3711,0.3278,6.8961,-0.0599,0.0220,-0.0220,19.73
306746679090600,214451,-7.2945,0.6173,6.7394,-0.0073,0.0330,0.0024,19.76
306746690869400,214462,-7.2766,0.7119,6.7119,-0.0379,0.0232,0.0061,19.76
306746701984200,214473,-7.2407,0.3362,7.0481,-0.0452,0.0159,0.0049,19.69
306746713091200,214484,-7.3591,0.7848,6.9177,0.0134,0.0415,0.0733,19.75
306746724387800,214496,-7.3041,0.4929,6.6808,-0.0159,0.0562,0.0696,19.75
306746735958200,214507,-7.2096,0.4750,6.7549,0.0049,0.0489,0.1051,19.72
306746747167200,214518,-7.2885,0.6951,6.6090,-0.0354,0.0281,0.1087,19.72
306746758017700,214530,-7.2311,0.6389,6.6736,-0.0269,0.0037,0.0831,19.71
306746769032100,214541,-7.2251,0.5731,6.7143,-0.0476,-0.0257,0.0648,19.71
306746780942600,214552,-7.2419,0.5994,6.8112,-0.0342,-0.0391,0.0586,19.70
306746792108400,214563,-7.2814,0.5803,6.8028,-0.0476,-0.0476,0.0806,19.70
306746803126800,214575,-7.2634,0.4331,6.7023,-0.0244,-0.0599,0.0489,19.71
306746814589900,214586,-7.2742,0.3577,6.7920,-0.0037,-0.0794,0.0489,19.73
306746826130100,214597,-7.3795,0.4822,6.8004,0.0257,-0.0831,0.0550,19.73
306746837205100,214608,-7.5613,0.6449,6.5671,0.0476,-0.0794,0.0476,19.71
306746848326700,214620,-7.6164,0.8339,6.6425,0.0550,-0.0757,0.0367,19.71
306746859643500,214631,-7.5123,0.5551,6.6808,0.0525,-0.0611,-0.0098,19.73
306746871028000,214642,-7.4309,0.2991,6.5850,0.0757,-0.0562,-0.0318,19.73
306746882322500,214653,-7.3663,0.8052,6.7298,0.1185,-0.0660,-0.0171,19.75
306746893438300,214665,-7.3819,1.0516,6.8818,0.1381,-0.0757,-0.0134,19.72
306746904627100,214676,-7.3878,1.0732,6.8339,0.0916,-0.0599,-0.0403,19.72
306746916281900,214687,-7.4333,0.9009,6.8267,0.0171,-0.0440,-0.0709,19.73
306746927308600,214699,-7.4154,0.5336,6.7226,-0.0305,-0.0305,-0.0867,19.73
306746938402900,214710,-7.4237,0.2847,6.5958,-0.0293,-0.0244,-0.0745,19.71
306746949614700,214721,-7.5326,0.2285,6.6879,-0.0049,-0.0330,-0.0464,19.71
306746961204400,214732,-7.6810,0.4869,6.8650,0.0538,-0.0159,-0.0208,19.75
306746972491800,214744,-7.4130,0.8016,6.6509,0.1112,0.0244,-0.0330,19.75
306746983364700,214755,-7.5494,0.7394,6.3733,0.1417,0.0586,-0.0476,19.75
306746994525700,214766,-7.5218,0.5468,6.5001,0.1319,0.0489,-0.0415,19.74
306747006209500,214777,-7.5458,0.2919,6.4630,0.1539,0.0403,-0.0525,19.74
306747017197500,214789,-7.3663,0.3194,6.7669,0.1967,0.0293,-0.0525,19.71
306747028390600,214800,-7.3531,0.2177,6.5312,0.2431,0.0257,-0.0476,19.71
306747039851200,214811,-7.3125,0.6867,6.8937,0.2969,0.0110,-0.0342,19.73
306747051135300,214822,-7.1593,0.4881,6.6772,0.2676,0.0061,-0.0586,19.73
306747062418400,214834,-7.0457,1.1833,6.8770,0.2810,-0.0269,-0.0220,19.75
306747073422400,214845,-7.1533,1.3149,6.7657,0.1393,-0.0819,-0.0538,19.73
306747084959700,214856,-7.1151,1.2179,6.8028,0.1075,-0.1002,-0.1002,19.73
306747096291700,214867,-7.1713,1.3472,6.6592,0.0611,-0.1234,-0.1368,19.73
306747107441000,214879,-7.1749,0.8794,6.6712,0.0073,-0.1454,-0.1600,19.73
306747118373300,214890,-7.3101,0.8542,6.7537,-0.0098,-0.1637,-0.1356,19.74
306747130250400,214901,-7.5218,0.8028,6.6879,-0.0037,-0.1637,-0.1319,19.74
306747141332300,214913,-7.3412,0.7394,6.5300,0.0183,-0.1576,-0.1356,19.78
306747152530100,214924,-7.5039,0.3984,6.8351,0.0354,-0.1637,-0.1100,19.78
306747164146900,214935,-7.3591,0.4295,6.6915,0.0843,-0.1442,-0.1014,19.74
306747175416900,214946,-7.5374,0.9404,6.5504,0.0757,-0.1503,-0.1258,19.77
306747186290400,214958,-7.4154,0.7083,6.7107,0.0599,-0.1552,-0.1796,19.77
306747197509400,214969,-7.4716,0.3589,6.7705,0.0794,-0.1466,-0.1808,19.75
306747209107000,214980,-7.4871,0.6568,6.7298,0.1087,-0.1368,-0.1637,19.75
306747220151400,214991,-7.3998,0.8351,6.7107,0.1356,-0.1258,-0.1723,19.73
306747231300500,215003,-7.5302,0.8506,6.7848,0.1124,-0.1246,-0.2114,19.73
306747242706300,215014,-7.3220,0.6245,6.8423,0.0794,-0.1075,-0.1381,19.73
306747254180900,215025,-7.3759,0.9153,6.8028,0.0904,-0.0929,-0.0782,19.71
306747265639600,215036,-7.3567,1.1246,6.8818,0.0990,-0.0782,-0.0550,19.71
306747276579900,215048,-7.3412,0.9763,6.8183,0.0648,-0.0611,-0.0525,19.71
306747287924000,215059,-7.3472,0.7609,6.6652,0.0232,-0.0525,-0.0611,19.71
306747299279800,215070,-7.3472,0.6796,6.6820,0.0024,-0.0562,-0.0550,19.73
306747310531200,215081,-7.3603,0.4487,6.7083,-0.0086,-0.0623,-0.0525,19.73
306747321307000,215093,-7.6570,0.8590,6.6987,0.0269,-0.0660,-0.0367,19.75
306747333098800,215104,-7.3496,0.8626,6.8076,-0.0147,-0.0709,-0.0428,19.73
306747344363900,215115,-7.3388,0.9930,6.8100,-0.0440,-0.0648,-0.0525,19.73
306747355425700,215127,-7.4201,0.9416,6.6317,-0.1051,-0.0574,-0.0709,19.73
306747366485300,215138,-7.4261,0.4092,6.8279,-0.1417,-0.0574,-0.0733,19.73
306747378136200,215149,-7.4022,0.2273,6.9356,-0.0941,-0.0379,-0.0159,19.68
306747389309700,215160,-7.4512,0.6832,6.5611,-0.0318,-0.0134,0.0403,19.68
306747400302900,215172,-7.6534,0.4762,6.6520,-0.0367,-0.0183,0.0403,19.73
306747411322100,215183,-7.5302,0.7729,6.6820,0.0391,0.0122,0.0977,19.73
306747423059700,215194,-7.3675,1.0062,6.6628,0.0354,0.0770,0.1136,19.76
306747434138800,215205,-7.5517,0.6173,6.4786,-0.0024,0.0733,0.0904,19.68
306747445283600,215217,-7.4584,0.7095,6.6413,0.0171,0.0696,0.1026,19.68
306747456465000,215228,-7.4118,0.2788,6.6592,-0.0061,0.0684,0.1087,19.75
306747467994000,215239,-7.4919,0.4642,6.7382,0.0733,0.0696,0.1197,19.75
306747479237600,215250,-7.4118,0.9715,6.6425,0.1197,0.0721,0.1197,19.75
306747490621600,215262,-7.4967,0.7131,6.7525,0.0623,0.0745,0.0855,19.75
306747501629500,215273,-7.4752,0.7741,6.4965,0.1100,0.0916,0.0880,19.73
306747513140700,215284,-7.2897,0.8004,6.7071,0.0134,0.0464,0.0550,19.75
306747524000900,215296,-7.0253,0.5539,6.6245,0.0318,0.0281,0.0232,19.75
306747535132300,215307,-7.2945,0.8351,6.6676,0.0281,-0.0171,-0.0037,19.71
306747546138900,215318,-7.2371,0.9344,6.8722,-0.0195,-0.0403,-0.0195,19.71
306747558107100,215329,-7.3125,0.7011,6.7872,-0.0379,-0.0379,-0.0428,19.71
306747569111700,215341,-7.4034,0.7561,6.6544,-0.0195,-0.0403,-0.0489,19.71
306747580536200,215352,-7.4477,0.7525,6.6497,-0.0244,-0.0440,-0.0476,19.75
306747591722000,215363,-7.4489,0.4678,6.6197,-0.0073,-0.0440,-0.0550,19.75
306747603178600,215374,-7.4680,0.7190,6.5898,0.0990,-0.0501,-0.0061,19.77
306747614503300,215386,-7.4560,0.8830,6.5623,0.1100,-0.0538,-0.0037,19.73
306747625499300,215397,-7.4333,0.8734,6.5982,0.0941,-0.0599,-0.0122,19.73
306747637114700,215408,-7.3508,0.7741,6.6114,0.0880,-0.0648,-0.0257,19.77
306747648367600,215419,-7.1043,0.7836,6.4295,0.0721,-0.0843,-0.0354,19.77
306747659303200,215431,-7.2634,0.9368,6.3553,0.0342,-0.1417,-0.0696,19.74
306747670326700,215442,-7.3364,0.7190,6.7980,0.0049,-0.1869,-0.1112,19.74
306747682084600,215453,-7.2993,0.6939,6.6736,-0.0049,-0.1943,-0.1381,19.71
306747693293400,215464,-7.5266,0.6891,6.5695,-0.0159,-0.2016,-0.1527,19.74
306747704297500,215476,-7.2861,0.8590,6.7585,0.0024,-0.2053,-0.1600,19.74
306747715969700,215487,-7.2335,0.8004,6.6329,-0.0086,-0.2126,-0.1979,19.73
306747727200300,215498,-7.3687,0.7944,6.8172,-0.0134,-0.2309,-0.2285,19.73
306747738396700,215510,-7.1797,0.7119,6.8662,-0.0244,-0.2297,-0.2334,19.75
306747749715500,215521,-7.7013,0.8674,6.6054,-0.0562,-0.2211,-0.2285,19.75
306747761269200,215532,-7.3843,0.7585,6.8183,-0.0696,-0.1991,-0.2126,19.72
306747772337900,215543,-7.4967,0.5085,6.7190,-0.0220,-0.1478,-0.1759,19.72
306747783412500,215555,-7.4560,0.5611,6.5827,-0.0183,-0.1332,-0.1613,19.77
306747794209400,215566,-7.5075,0.4690,6.5910,-0.0024,-0.1356,-0.1662,19.76
306747806126300,215577,-7.4477,0.6688,6.7621,0.0538,-0.1295,-0.1295,19.76
306747817426600,215588,-7.3878,0.5683,6.8889,0.0379,-0.1136,-0.0867,19.75
306747828633800,215600,-7.2885,0.7944,6.9248,0.0318,-0.0977,-0.0660,19.75
306747839973800,215611,-7.3412,0.7143,6.7454,0.0000,-0.0867,-0.0867,19.73
306747851061000,215622,-7.3555,0.6425,6.8327,-0.0012,-0.0867,-0.0953,19.73
306747862490400,215633,-7.3687,0.4810,6.9045,-0.0073,-0.0733,-0.0819,19.70
306747873350000,215645,-7.3639,0.4977,6.7872,0.0134,-0.0586,-0.0623,19.72
306747885009700,215656,-7.3364,0.6580,6.6425,0.0183,-0.0550,-0.0501,19.72
306747896120500,215667,-7.3304,0.5503,6.7202,0.0073,-0.0660,-0.0586,19.71
306747907432300,215678,-7.3711,0.6317,6.8507,0.0134,-0.0696,-0.0599,19.71
306747918479900,215690,-7.4776,0.5755,6.8770,0.0012,-0.0586,-0.0684,19.70
306747930137400,215701,-7.5410,0.3494,6.8004,0.0086,-0.0342,-0.0867,19.70
306747941187900,215712,-7.4907,0.4510,6.7083,0.0452,-0.0122,-0.0794,19.73
306747952366200,215724,-7.5135,0.5073,6.5839,0.1063,0.0098,-0.0476,19.73
306747963455700,215735,-7.7910,0.4869,6.5180,0.0941,0.0159,-0.0538,19.73
306747975085600,215746,-7.3340,0.3135,6.7478,0.0990,0.0232,-0.0635,19.75
306747986202200,215757,-7.5362,0.1711,6.5420,0.1368,0.0281,-0.0538,19.75
306747997363300,215769,-7.4489,0.3960,6.7932,0.1918,0.0244,-0.0244,19.76
306748008478200,215780,-7.3519,0.5037,6.8207,0.2431,0.0305,-0.0391,19.76
306748020100800,215791,-7.2084,0.3864,6.7848,0.2969,0.0305,-0.0733,19.73
306748031186200,215802,-7.1318,0.4606,6.7502,0.3201,0.0110,-0.0806,19.73
306748042553900,215814,-7.2072,0.7908,6.9679,0.3042,-0.0232,-0.0562,19.76
306748053436700,215825,-7.1390,0.7513,7.0086,0.2896,-0.0232,-0.0623,19.73
306748065022200,215836,-7.2634,0.9260,6.7549,0.2920,-0.0220,-0.0660,19.73
306748076230400,215847,-7.2766,1.0086,6.6174,0.2334,-0.0367,-0.0953,19.75
306748087460600,215859,-7.2586,0.9212,6.6772,0.1881,-0.0562,-0.1283,19.75
306748098986100,215870,-7.4225,0.6508,6.6150,0.1649,-0.0733,-0.1600,19.75
306748110192800,215881,-7.4094,0.7896,6.6879,0.1613,-0.0819,-0.1576,19.75
306748121254500,215892,-7.5087,0.7490,6.6221,0.1368,-0.0831,-0.1820,19.75
306748132642100,215904,-7.4740,0.4271,6.5647,0.1527,-0.0770,-0.1930,19.73
306748144074700,215915,-7.4465,0.5563,6.6305,0.1845,-0.0794,-0.1747,19.73
306748155207900,215926,-7.4046,0.6317,6.8076,0.1967,-0.0757,-0.1429,19.73
306748166390400,215938,-7.4812,0.9332,6.6832,0.2138,-0.0599,-0.1319,19.73
306748177513200,215949,-7.4166,0.6903,6.6748,0.2199,-0.0525,-0.1454,19.77
306748189112500,215960,-7.3352,1.0624,6.8315,0.2224,-0.0489,-0.1222,19.77
306748200421800,215971,-7.4237,0.7729,6.6592,0.1759,-0.0354,-0.1161,19.76
306748211375800,215983,-7.4237,0.7190,6.9332,0.1808,-0.0391,-0.0855,19.76
306748222570700,215994,-7.4668,0.8746,6.7418,0.2505,-0.0147,-0.1112,19.75
306748234164900,216005,-7.1737,0.6126,6.5755,0.2627,-0.0110,-0.1552,19.73
306748245432500,216016,-7.1749,0.8554,6.6389,0.2211,-0.0403,-0.1112,19.73
306748256437100,216028,-7.2323,1.0038,6.8183,0.1332,-0.0574,-0.0501,19.76
306748268106300,216039,-7.4106,0.9141,6.8327,0.0684,-0.0525,-0.0318,19.76
306748279256500,216050,-7.4070,0.7729,6.7717,0.0489,-0.0440,-0.0415,19.71
306748290332500,216061,-7.3878,0.8411,6.6353,0.0354,-0.0354,-0.0403,19.71
306748301567800,216073,-7.2108,0.8399,6.7035,-0.0061,-0.0452,-0.0379,19.74
306748313093100,216084,-7.0445,0.9500,6.5803,-0.1087,-0.0660,-0.0281,19.70
306748324203000,216095,-7.3017,0.9344,6.6796,-0.2138,-0.1002,-0.0024,19.70
306748335380500,216107,-7.2897,0.5671,6.9344,-0.2822,-0.1087,0.0293,19.74
306748346422100,216118,-7.4465,0.8865,6.6413,-0.2505,-0.0990,0.0574,19.74
306748358164800,216129,-7.5003,0.6425,6.5456,-0.2321,-0.0965,0.0452,19.77
306748369231200,216140,-7.4261,0.6305,6.8483,-0.1857,-0.0965,0.0574,19.77
306748380299800,216152,-7.5733,0.6413,6.5839,-0.1955,-0.0867,0.0525,19.73
306748391442400,216163,-7.6104,0.4427,6.6664,-0.1515,-0.0745,0.0733,19.73
306748403122000,216174,-7.6176,0.6951,6.7167,-0.1429,-0.0550,0.0977,19.73
306748414186200,216185,-7.5817,0.5539,6.6126,-0.1026,-0.0293,0.0770,19.73
306748425341400,216197,-7.5015,0.4869,6.6796,-0.0672,-0.0171,0.0941,19.73
306748436915300,216208,-7.6199,0.8028,6.6341,-0.0538,-0.0061,0.1075,19.73
306748448075100,216219,-7.3508,0.9643,6.6688,-0.0586,0.0098,0.1026,19.73
306748459112800,216230,-7.4405,0.7896,6.5862,-0.1222,0.0061,0.0770,19.72
306748470309800,216242,-7.4154,0.6712,6.7083,-0.1332,0.0024,0.0648,19.72
306748481966100,216253,-7.4943,0.3709,6.7250,-0.0403,0.0098,0.0428,19.76
306748493129400,216264,-7.5111,0.4630,6.6999,0.0098,0.0220,0.0525,19.75
306748504018500,216275,-7.4955,0.6712,6.5468,0.0428,0.0318,0.0550,19.75
306748515139400,216287,-7.4285,0.5791,6.6760,0.0525,0.0269,0.0501,19.76
306748526330600,216298,-7.6654,0.4080,6.7813,0.0831,0.0342,0.0403,19.76
306748538257000,216309,-7.4847,0.5958,6.7777,0.1686,0.0635,0.0428,19.73
306748549076600,216321,-7.3783,0.7466,6.3912,0.1881,0.0696,0.0281,19.73
306748560093200,216332,-7.5182,0.8088,6.4989,0.1710,0.0415,0.0049,19.77
306748571237400,216343,-7.4441,0.3482,6.8315,0.2517,0.0452,-0.0354,19.77
306748583050500,216354,-7.4345,0.4869,6.5827,0.2920,0.0550,-0.0232,19.73
306748593993600,216366,-7.3878,0.4678,6.5073,0.2871,0.0501,-0.0159,19.73
306748605283500,216377,-7.4369,0.8841,6.3876,0.2993,0.0305,-0.0195,19.73
306748616152900,216388,-7.2897,0.8997,6.5109,0.2761,0.0037,-0.0342,19.72
306748628222500,216399,-7.1940,0.8877,6.7848,0.2236,-0.0257,-0.0464,19.72
306748639251500,216411,-7.2861,0.8183,6.7286,0.1686,-0.0403,-0.0379,19.75
306748650213100,216422,-7.3555,1.1773,6.6018,0.1662,-0.0513,-0.0391,19.75
306748662137300,216433,-7.3567,1.1462,6.4223,0.1014,-0.0929,-0.1344,19.77
306748673228300,216444,-7.4465,0.7274,6.4822,0.0599,-0.1271,-0.1784,19.75
306748684367900,216456,-7.2096,0.9990,6.8554,0.0611,-0.1332,-0.1258,19.75
306748695569400,216467,-7.4022,1.0576,6.3039,-0.0220,-0.1319,-0.1112,19.71
306748707240900,216478,-7.2431,0.8195,6.5192,-0.0635,-0.1698,-0.1197,19.71
306748718328400,216489,-7.4369,0.4977,6.6449,-0.0819,-0.1979,-0.1173,19.78
306748729493300,216501,-7.5314,0.7202,6.6724,-0.0403,-0.2004,-0.1026,19.78
306748741092300,216512,-7.4608,1.0026,6.5085,-0.0195,-0.1869,-0.0867,19.73
306748752246400,216523,-7.3819,1.0098,6.7190,-0.0501,-0.1759,-0.0916,19.74
306748763396100,216535,-7.6846,0.8518,6.4965,-0.0757,-0.1710,-0.1148,19.74
306748774420900,216546,-7.3974,0.8267,6.8351,-0.0672,-0.1564,-0.1026,19.78
306748786186400,216557,-7.4644,0.8207,6.5575,-0.0709,-0.1368,-0.0904,19.78
306748797350400,216568,-7.5661,0.8877,6.5121,-0.0916,-0.1356,-0.0880,19.78
306748808407700,216580,-7.5577,0.6664,6.7382,-0.0929,-0.1295,-0.0904,19.78
306748819826900,216591,-7.5398,0.4606,6.7310,-0.0635,-0.1075,-0.0782,19.72
306748831173500,216602,-7.5206,0.6461,6.6293,-0.0220,-0.0904,-0.0550,19.72
306748842195600,216613,-7.4692,0.9547,6.5276,0.0538,-0.0648,-0.0293,19.77
306748853442600,216625,-7.4608,1.1222,6.4642,0.0134,-0.0672,-0.0415,19.76
306748865244700,216636,-7.4800,0.9057,6.5432,-0.0672,-0.0794,-0.0709,19.76
306748876379100,216647,-7.6798,0.2142,6.8363,-0.0880,-0.0819,-0.0904,19.79
306748887476900,216658,-7.4189,-0.0144,7.2036,0.0440,-0.0440,-0.0599,19.79
306748898681700,216670,-7.4680,0.4510,6.7035,0.1649,0.0012,-0.0159,19.76
306748910093800,216681,-7.5218,0.8925,6.5492,0.2028,0.0061,-0.0086,19.76
306748921330400,216692,-7.5326,0.7501,6.5085,0.1881,0.0061,-0.0696,19.77
306748932754400,216704,-7.7145,0.7585,6.6162,0.1393,0.0061,-0.0806,19.76
306748943554000,216715,-7.4800,0.2477,6.6150,0.1710,0.0269,-0.1136,19.76
306748955153600,216726,-7.3448,0.3721,6.4176,0.2370,0.0134,-0.1124,19.73
306748966303700,216737,-7.3400,0.6413,6.5551,0.2309,-0.0147,-0.0831,19.73
306748977574600,216749,-7.3878,0.9894,6.7298,0.1979,-0.0318,-0.0562,19.76
306748988333800,216760,-7.3376,0.8961,6.7741,0.1564,-0.0269,-0.0648,19.76
306749000182300,216771,-7.3854,0.8160,6.7490,0.1600,-0.0257,-0.0819,19.77
306749011403900,216782,-7.2957,0.8530,6.6796,0.1600,-0.0379,-0.0721,19.77
306749022105300,216794,-7.3364,0.9260,6.6903,0.1625,-0.0501,-0.0867,19.73
306749033337100,216805,-7.3926,0.9954,6.4714,0.1600,-0.0611,-0.1417,19.74
306749045195900,216816,-7.3113,0.7370,6.5527,0.1173,-0.0904,-0.1930,19.74
306749056331400,216827,-7.3938,0.6018,6.5815,0.1087,-0.1063,-0.2004,19.75
306749067406000,216839,-7.4010,0.7226,6.7585,0.1026,-0.1161,-0.1613,19.75
306749079045300,216850,-7.4501,1.0564,6.5743,0.0904,-0.1002,-0.1185,19.76
306749090135700,216861,-7.4979,0.9559,6.4618,0.0281,-0.1014,-0.1148,19.76
306749101342500,216872,-7.5841,0.8459,6.5372,0.0855,-0.0965,-0.1552,19.74
306749112772800,216884,-7.5087,0.7190,6.6066,0.0831,-0.0929,-0.1820,19.74
306749124200900,216895,-7.5123,0.7944,6.5827,0.0977,-0.0867,-0.1991,19.74
306749135161900,216906,-7.6774,0.6664,6.4235,0.0806,-0.0843,-0.2334,19.77
306749146484500,216918,-7.6128,0.3601,6.4989,0.1136,-0.0843,-0.2590,19.77
306749157617500,216929,-7.6642,0.5468,6.5384,0.1503,-0.0733,-0.2224,19.74
306749169197500,216940,-7.5661,0.8674,6.6509,0.1393,-0.0586,-0.1759,19.74
306749180453900,216951,-7.4189,0.6508,6.6939,0.1405,-0.0428,-0.1637,19.74
306749191516800,216963,-7.3639,0.5025,6.7992,0.1454,-0.0269,-0.1136,19.75
306749203008600,216974,-7.2778,0.6185,6.7968,0.1759,-0.0244,-0.0904,19.75
306749214341600,216985,-7.3866,0.6604,6.6413,0.1857,-0.0244,-0.0721,19.74
306749225440800,216996,-7.1916,0.8124,6.7765,0.1894,-0.0342,-0.0611,19.74
306749236415800,217008,-7.2072,0.8734,6.7537,0.1576,-0.0440,-0.0354,19.74
306749248046900,217019,-7.3603,1.3041,6.7561,0.0941,-0.0476,-0.0061,19.74
306749259235700,217030,-7.4800,1.1833,6.6628,-0.0012,-0.0415,-0.0354,19.77
306749270303000,217041,-7.4608,0.4152,6.5623,-0.0623,-0.0379,-0.0709,19.77
306749281488800,217053,-7.4166,0.5324,6.6209,-0.0855,-0.0501,-0.0452,19.77
306749293171600,217064,-7.3041,0.6580,6.5982,-0.1051,-0.0562,-0.0183,19.75
306749304307100,217075,-7.2778,0.8674,6.6413,-0.1466,-0.0757,0.0134,19.75
306749315393100,217086,-7.3663,1.1294,6.7813,-0.2150,-0.0831,0.0391,19.78
306749326966100,217098,-7.3220,1.0038,6.5922,-0.2798,-0.0721,0.0318,19.78
306749338165200,217109,-7.5685,0.7705,6.5767,-0.2957,-0.0757,0.0525,19.76
306749349480000,217120,-7.5039,0.7884,6.6544,-0.2847,-0.0672,0.0880,19.76
306749360509800,217132,-7.6546,0.3721,6.5575,-0.2505,-0.0538,0.0880,19.80
306749372192300,217143,-7.5948,0.0921,6.5312,-0.1454,-0.0403,0.0501,19.77
306749383258600,217154,-7.5924,0.4187,6.6341,-0.0721,-0.0354,0.0806,19.77
306749394470600,217165,-7.6822,0.2644,6.4439,-0.0660,-0.0208,0.0599,19.74
306749405639100,217177,-7.8652,0.3302,6.4032,0.0049,-0.0171,0.0550,19.74
306749416893900,217188,-7.5206,0.3936,6.8004,0.0696,0.0061,0.1087,19.75
306749428108400,217199,-7.7145,0.8818,6.3852,0.0953,0.0257,0.1258,19.75
306749439202400,217210,-7.4429,0.7645,6.6999,0.1222,0.0281,0.0880,19.76
306749450397700,217222,-7.5326,0.8734,6.6772,0.1723,0.0403,0.0623,19.76
306749461427700,217233,-7.4560,0.6712,6.6401,0.1613,0.0464,0.0024,19.76
306749473165300,217244,-7.3460,0.5324,6.5839,0.1918,0.0538,-0.0220,19.75
306749484202700,217255,-7.5218,0.6293,6.5133,0.2162,0.0318,-0.0342,19.75
306749495401900,217267,-7.3675,0.4044,6.7813,0.2248,0.0257,-0.0367,19.74
306749506987500,217278,-7.4381,0.3218,6.5288,0.2468,0.0208,-0.0293,19.74
306749518116100,217289,-7.4776,0.4630,6.6640,0.2773,0.0049,-0.0232,19.79
306749529181100,217300,-7.4644,0.7944,6.5563,0.3005,0.0049,-0.0281,19.79
306749540204600,217312,-7.4800,0.7908,6.3494,0.2737,0.0000,-0.0440,19.75
306749551407000,217323,-7.3783,0.9129,6.7717,0.2370,-0.0672,-0.0281,19.73
306749563084200,217334,-7.4800,0.9894,6.5073,0.2297,-0.0562,-0.0501,19.73
306749574018700,217346,-7.4369,1.1043,6.4463,0.2065,-0.0733,-0.0855,19.76
306749585096500,217357,-7.1916,1.0313,6.6784,0.1796,-0.0916,-0.0941,19.76
306749596976700,217368,-7.3807,1.1809,6.4511,0.1307,-0.1087,-0.1002,19.75
306749608070000,217379,-7.4070,1.2287,6.5085,0.0770,-0.1258,-0.1087,19.75
306749619183700,217391,-7.5470,0.9595,6.4522,0.0098,-0.1429,-0.1356,19.76
306749630490500,217402,-7.4560,0.7549,6.5815,0.0061,-0.1429,-0.0904,19.76
306749642267200,217413,-7.4142,0.8626,6.4881,0.0073,-0.1197,-0.0635,19.76
306749653380200,217424,-7.3065,0.8913,6.5611,-0.0134,-0.1356,-0.0672,19.75
306749664446600,217436,-7.4728,0.8423,6.5874,-0.0452,-0.1576,-0.0794,19.75
306749675668800,217447,-7.3268,0.6006,6.9978,-0.0476,-0.1600,-0.0757,19.76
306749687113300,217458,-7.6415,0.6508,6.5169,-0.0110,-0.1381,-0.0574,19.76
306749698392200,217469,-7.5673,1.0074,6.5384,0.0220,-0.1210,-0.0244,19.79
306749709587900,217481,-7.5709,1.1474,6.4534,0.0073,-0.1014,-0.0134,19.79
306749721044700,217492,-7.6582,0.6485,6.6879,-0.0269,-0.0794,-0.0318,19.77
306749732234300,217503,-7.6511,0.6700,6.6209,0.0024,-0.0538,-0.0171,19.77
306749743321700,217515,-7.5386,0.9751,6.2381,0.0342,-0.0367,-0.0098,19.77
306749754426200,217526,-7.5147,1.2455,6.1531,-0.0012,-0.0611,-0.0232,19.76
306749766020600,217537,-7.6403,1.2849,6.3613,-0.0819,-0.0929,-0.0550,19.76
306749777475200,217548,-7.8915,0.7801,6.9894,-0.1222,-0.0819,-0.0672,19.76
306749788467400,217560,-7.9226,0.1388,7.0110,0.0147,0.0159,-0.0110,19.76
306749799503200,217571,-7.7073,0.7860,6.7681,0.2773,0.1234,0.0599,19.73
306749811605200,217582,-7.6223,0.5659,6.3589,0.3128,0.1820,0.0635,19.73
306749822475800,217593,-7.6738,0.7310,6.4343,0.3274,0.1784,0.0635,19.77
306749833445800,217605,-7.9023,0.7621,6.5192,0.2944,0.1845,0.0794,19.78
306749844610700,217616,-7.4788,0.8985,6.5982,0.3286,0.2272,0.1038,19.78
306749856266400,217627,-7.7468,1.1414,6.3135,0.3140,0.2395,0.1136,19.77
306749867242400,217638,-7.8329,1.2215,6.1974,0.2957,0.2578,0.1332,19.77
306749878573400,217650,-7.1904,1.4788,6.2907,0.2126,0.2615,0.1454,19.77
306749890197600,217661,-8.0818,1.6152,6.4582,0.1576,0.2395,0.1173,19.77
306749901252000,217672,-7.4189,1.3627,6.2967,0.0599,0.3213,0.1124,19.77
306749912422400,217683,-7.3938,1.3507,6.0550,-0.0403,0.2737,0.1258,19.72
306749923437000,217695,-7.4883,1.0624,6.3194,-0.0672,0.2346,0.0806,19.72
306749935072600,217706,-7.5458,1.2311,6.4654,-0.1161,0.2114,0.0733,19.76
306749946345000,217717,-7.5506,0.9858,6.2142,-0.0855,0.1845,0.0379,19.76
306749957356100,217729,-7.6654,0.7729,6.1388,-0.0696,0.1637,0.0269,19.77
306749968770400,217740,-7.8449,0.8650,5.8564,-0.0599,0.1442,0.0452,19.77
306749980215600,217751,-7.8951,0.4678,6.3482,-0.0525,0.1283,0.0574,19.80
306749991191100,217762,-7.4991,1.2945,6.2704,-0.0745,0.0745,0.0990,19.78
306750002378000,217774,-7.6080,1.2634,6.1316,-0.1258,0.0403,0.0367,19.78
306750013569400,217785,-7.5769,1.1067,6.1890,-0.1613,0.0037,0.0000,19.76
306750025024500,217796,-7.5506,1.1270,6.0981,-0.1759,-0.0220,-0.0061,19.76
306750036223900,217807,-7.5111,0.9153,6.2788,-0.1845,-0.0501,0.0012,19.77
306750047429800,217819,-7.5003,0.4068,6.2931,-0.1503,-0.0831,0.0061,19.77
306750058461300,217830,-7.5242,0.7083,6.3577,-0.0941,-0.1087,0.0709,19.77
306750070071800,217841,-7.7300,0.5288,5.2953,-0.0574,-0.1246,0.0843,19.77
306750081270200,217852,-7.6965,0.9906,5.7823,0.0330,-0.2053,0.0965,19.78
306750092404000,217864,-7.8090,0.9607,6.2429,-0.0061,-0.2443,0.1014,19.79
306750103584800,217875,-7.9561,1.1127,6.3565,0.0623,-0.2272,0.0892,19.79
306750115014800,217886,-7.8293,1.6522,6.2046,0.0648,-0.2016,0.0696,19.78
306750126452800,217897,-7.5697,1.5206,6.2692,-0.0367,-0.1930,0.0379,19.78
306750137756300,217909,-7.7025,1.0660,6.1053,0.0049,-0.1906,-0.0183,19.79
306750148503500,217920,-7.5936,1.1127,6.2106,0.0086,-0.2224,-0.0415,19.79
306750160355600,217931,-7.4381,0.9835,6.7561,-0.0379,-0.2566,-0.0635,19.77
306750171299300,217943,-7.5063,0.8160,6.3984,0.0428,-0.2456,-0.1381,19.75
306750182692400,217954,-7.3352,0.9823,6.2847,0.0684,-0.2737,-0.1772,19.75
306750194107800,217965,-7.5517,1.0959,6.0455,0.0195,-0.3299,-0.2443,19.78
306750205233200,217976,-7.7898,1.1749,6.1173,-0.0232,-0.3836,-0.3042,19.78
306750216547000,217988,-7.5386,1.4800,6.5850,-0.0147,-0.3873,-0.3030,19.74
306750227434500,217999,-7.7001,1.4213,6.7502,-0.0623,-0.3409,-0.2847,19.74
306750238974300,218010,-7.7563,0.9535,6.6257,-0.0916,-0.2737,-0.2553,19.77
306750250417600,218021,-7.6630,0.7705,6.1759,-0.0623,-0.2346,-0.2065,19.77
306750261599000,218033,-7.6499,1.1079,6.2046,-0.0171,-0.2676,-0.2321,19.75
306750273065900,218044,-7.7025,0.8219,6.6544,-0.0024,-0.2761,-0.2663,19.74
306750284271600,218055,-7.5446,1.1904,6.6832,0.0171,-0.2492,-0.2773,19.74
306750295332800,218066,-7.6056,1.0110,6.4881,-0.0354,-0.2260,-0.3103,19.76
306750306454100,218078,-7.4883,0.9870,6.5145,-0.0501,-0.2150,-0.2944,19.76
306750318329200,218089,-7.5218,0.7825,6.5121,-0.0855,-0.2162,-0.2993,19.71
306750329341900,218100,-7.3125,0.8148,6.7274,-0.0843,-0.2211,-0.2908,19.71
306750340325100,218112,-7.4441,0.7669,6.6580,-0.0916,-0.2077,-0.2431,19.73
306750352081600,218123,-7.6451,0.4654,6.6748,-0.1319,-0.2028,-0.2321,19.80
306750363275700,218134,-7.5171,0.3960,6.8291,-0.0513,-0.1723,-0.1894,19.80
306750374460900,218145,-7.4477,0.9452,6.5647,0.0293,-0.1417,-0.1356,19.78
306750385674800,218157,-7.4237,1.0050,6.4487,-0.0660,-0.1466,-0.1393,19.78
306750397250000,218168,-7.3400,0.8901,6.6377,-0.1075,-0.1637,-0.1662,19.78
306750408300100,218179,-7.6367,0.3637,6.6616,-0.1283,-0.1710,-0.1698,19.78
306750419399300,218190,-7.6570,0.3314,6.4953,-0.0709,-0.1393,-0.1051,19.75
306750431282100,218202,-7.5649,0.4211,6.7549,0.0305,-0.1173,-0.0379,19.78
306750442212000,218213,-7.4967,0.7621,6.7442,0.0709,-0.1014,-0.0305,19.78
306750453358600,218224,-7.4034,0.9356,6.5731,0.0733,-0.0843,-0.0403,19.77
306750464476000,218235,-7.3603,0.8124,6.6616,0.0257,-0.0965,-0.0745,19.77
306750476115100,218247,-7.4237,0.7992,6.6365,0.0098,-0.1051,-0.1075,19.80
306750487227000,218258,-7.4812,0.5192,6.6664,-0.0195,-0.1051,-0.1148,19.80
306750498316700,218269,-7.4357,0.5862,6.7825,-0.0098,-0.0965,-0.0880,19.78
306750509310300,218280,-7.4620,0.3553,6.6293,-0.0208,-0.0794,-0.0660,19.78
306750521098900,218292,-7.5326,0.4929,6.6018,0.0183,-0.0672,-0.0257,19.74
306750532212000,218303,-7.5027,0.8459,6.5049,0.0342,-0.0586,-0.0110,19.77
306750543350000,218314,-7.4931,0.9942,6.4499,-0.0049,-0.0635,-0.0244,19.77
306750554437500,218326,-7.5577,0.9691,6.5360,-0.0599,-0.0782,-0.0562,19.80
306750566169200,218337,-7.8401,0.6257,6.9870,-0.0745,-0.0635,-0.0709,19.80
306750577313300,218348,-7.5685,0.4211,7.2227,0.0122,0.0171,-0.0257,19.80
306750588085700,218359,-7.7551,0.6485,6.5109,0.0806,0.0892,0.0098,19.80
306750599121000,218371,-7.6917,0.3553,6.6281,0.0855,0.0990,0.0183,19.78
306750610948700,218382,-7.5793,0.2333,6.6999,0.1210,0.1148,0.0244,19.78
306750621968500,218393,-7.5171,0.4510,6.4522,0.1478,0.1271,0.0391,19.78
306750632985200,218404,-7.5565,0.6150,6.3290,0.1381,0.1075,0.0232,19.80
306750644259700,218416,-7.6427,0.5551,6.6808,0.1295,0.0855,0.0061,19.80
306750655926500,218427,-7.4847,0.5647,6.7549,0.1906,0.1100,0.0061,19.78
306750667125000,218438,-7.2658,0.6796,6.6485,0.2211,0.1271,0.0000,19.78
306750678240200,218449,-7.4716,0.8518,6.1914,0.1943,0.1002,-0.0171,19.79
306750689415900,218461,-7.1952,0.3458,6.5910,0.1295,0.0599,-0.0379,19.79
306750700982200,218472,-7.3663,0.8662,6.9535,0.0257,0.0183,-0.0574,19.77
306750712168300,218483,-7.3376,0.9679,6.4881,-0.0318,0.0330,-0.0586,19.80
306750723157300,218494,-7.4118,0.7513,6.3386,-0.1051,0.0049,-0.0855,19.80
306750734608000,218506,-7.4740,0.5157,6.4642,-0.1210,-0.0330,-0.0990,19.82
306750746083400,218517,-7.4859,0.1771,6.5862,-0.0916,-0.0464,-0.0916,19.82
306750757118800,218528,-7.5470,0.1400,6.7131,-0.0464,-0.0525,-0.0648,19.79
306750768313900,218540,-7.4501,0.3434,6.8315,-0.0012,-0.0403,-0.0269,19.79
306750779557800,218551,-7.1868,0.2895,5.9593,0.0599,-0.0269,-0.0012,19.78
306750791207100,218562,-7.1426,0.6987,6.5599,0.0843,-0.1955,0.0770,19.75
306750802137500,218573,-7.4812,0.7155,6.6150,0.0831,-0.2456,0.0330,19.75
306750813355900,218585,-7.4931,0.8818,6.6221,0.1026,-0.2529,-0.0171,19.79
306750824406400,218596,-7.6343,0.9416,6.4798,0.0672,-0.2566,-0.0684,19.79
306750836266900,218607,-7.7348,0.8722,6.6963,0.0415,-0.2456,-0.0990,19.79
306750847402400,218618,-7.4859,0.8411,6.5958,0.0208,-0.2138,-0.1136,19.79
306750858350800,218630,-7.6032,0.8375,6.2536,-0.0415,-0.2114,-0.1405,19.76
306750870053300,218641,-7.4417,0.4522,6.7968,-0.0867,-0.2211,-0.1527,19.76
306750881311400,218652,-7.7228,0.2417,6.6401,-0.0941,-0.1991,-0.1759,19.75
306750892321200,218663,-7.4836,0.5085,6.5910,-0.0305,-0.1759,-0.1381,19.79
306750903429600,218675,-7.7300,0.4953,6.5408,-0.0428,-0.1723,-0.1454,19.79
306750915224200,218686,-7.3137,0.7071,6.7777,0.0452,-0.1503,-0.1246,19.82
306750926268400,218697,-7.6881,0.5767,6.5300,0.0476,-0.1417,-0.1393,19.82
306750937431700,218708,-7.4943,0.5743,6.7657,0.1014,-0.1295,-0.1197,19.79
306750949110200,218720,-7.4572,0.5611,6.7669,0.1136,-0.1063,-0.0904,19.79
306750960192100,218731,-7.5218,0.8279,6.6640,0.1161,-0.0855,-0.0977,19.78
306750971222300,218742,-7.6307,0.9320,6.5982,0.0660,-0.0648,-0.0819,19.76
306750982489600,218754,-7.6511,0.6018,6.6784,0.0281,-0.0513,-0.1100,19.76
306750994127400,218765,-7.5087,0.4259,6.7466,0.0428,-0.0293,-0.1173,19.81
306751005243800,218776,-7.6690,0.3541,6.6281,0.0550,-0.0073,-0.0953,19.81
306751016242300,218787,-7.6247,0.2441,6.6544,0.0977,0.0147,-0.0745,19.79
306751027428200,218799,-7.6307,0.5133,6.8471,0.1503,0.0415,-0.0452,19.79
306751039105800,218810,-7.6522,0.1316,6.4307,0.1747,0.0794,-0.0428,19.79
306751050360600,218821,-7.3137,-0.1184,6.5791,0.2334,0.0672,-0.0171,19.79
306751061269800,218832,-7.4584,0.5432,6.6939,0.3445,0.0538,0.0257,19.79
306751072463800,218844,-7.4225,0.5635,6.6185,0.3494,0.0525,0.0049,19.77
306751084177100,218855,-7.3759,0.9547,6.7406,0.3665,0.0440,-0.0208,19.77
306751095262800,218866,-7.4285,0.8363,6.3876,0.3323,0.0354,-0.0745,19.79
306751106221300,218877,-7.3149,0.9009,6.4295,0.2993,0.0061,-0.0977,19.79
306751117673100,218889,-7.4058,0.7597,6.6389,0.2676,-0.0257,-0.0880,19.79
306751128943400,218900,-7.4178,0.9655,6.7597,0.2676,-0.0281,-0.0757,19.79
306751140186300,218911,-7.4154,0.9188,6.3266,0.2028,-0.0379,-0.1405,19.82
306751151383500,218923,-7.3436,0.4367,6.5599,0.1991,-0.0733,-0.1307,19.78
306751162447600,218934,-7.5159,1.2227,6.6760,0.2028,-0.0880,-0.1026,19.78
306751174209900,218945,-7.5697,0.9631,6.1795,0.1613,-0.0843,-0.1979,19.82
306751185371900,218956,-7.5218,1.1354,6.4199,0.1295,-0.1185,-0.2529,19.82
306751196435200,218968,-7.4967,0.3350,6.6305,0.0464,-0.1258,-0.2639,19.81
306751208092600,218979,-7.4536,0.5348,6.8172,0.1307,-0.1112,-0.1845,19.81
306751219076700,218990,-7.5841,1.1438,6.5348,0.1466,-0.0867,-0.1503,19.82
306751230420400,219001,-7.3220,0.8064,6.8435,0.1258,-0.0892,-0.1503,19.77
306751241436300,219013,-7.4489,0.5862,6.7741,0.0867,-0.0696,-0.1026,19.77
306751252940500,219024,-7.4788,0.7836,6.7466,0.0794,-0.0525,-0.0696,19.77
306751264246100,219035,-7.5290,0.6102,6.4822,0.0599,-0.0379,-0.0684,19.77
306751275488800,219046,-7.4847,0.6209,6.6150,0.0635,-0.0452,-0.0623,19.81
306751286520200,219058,-7.4740,0.8734,6.6257,0.0550,-0.0415,-0.0513,19.81
306751298178500,219069,-7.3711,0.8626,6.5097,0.0061,-0.0367,-0.0611,19.78
306751309341500,219080,-7.4106,0.6724,6.6903,-0.0550,-0.0611,-0.0745,19.78
306751320274500,219091,-7.3783,0.7561,6.5515,-0.0843,-0.0831,-0.0489,19.79
306751331673400,219103,-7.6965,0.6233,6.4032,-0.1124,-0.0892,-0.0403,19.79
306751343360000,219114,-7.4596,0.7645,6.5743,-0.1478,-0.0929,-0.0281,19.79
306751354370100,219125,-7.6032,0.5803,6.4558,-0.2089,-0.0843,0.0098,19.81
306751365550200,219137,-7.5494,0.4702,6.6042,-0.2211,-0.0843,0.0586,19.81
306751377100900,219148,-7.7049,0.4056,6.6174,-0.1759,-0.0696,0.1038,19.77
306751388318700,219159,-7.7169,0.7059,6.4834,-0.1075,-0.0452,0.1283,19.77
306751399305700,219170,-7.6475,0.4786,6.7669,-0.0953,-0.0367,0.0929,19.79
306751410342100,219182,-7.5733,0.2584,6.8255,-0.0110,0.0073,0.0977,19.83
306751421999600,219193,-7.5350,0.7920,6.4427,0.0367,0.0342,0.1332,19.83
306751433136800,219204,-7.8078,0.7406,5.8205,0.0195,0.0220,0.0867,19.79
306751444192900,219215,-7.6343,0.2812,6.8985,0.0391,-0.0086,0.0684,19.79
306751455542000,219227,-7.7575,0.3182,6.9356,0.1222,0.0367,0.1161,19.79
306751467151800,219238,-7.6618,0.7167,6.8626,0.1979,0.0990,0.1319,19.79
306751478148300,219249,-7.6546,1.0301,6.2728,0.2114,0.1332,0.1038,19.78
306751489412900,219260,-7.5960,0.9153,5.9821,0.1845,0.1246,0.0525,19.78
306751500481700,219272,-7.5003,0.8518,6.7370,0.1124,0.0525,-0.0208,19.82
306751512094700,219283,-7.5661,0.7848,6.6820,0.1197,0.0599,-0.0452,19.75
306751523233300,219294,-7.4429,0.6245,6.6987,0.1185,0.0794,-0.0574,19.75
306751534405200,219305,-7.5206,0.5145,6.1807,0.1332,0.0782,-0.0538,19.85
306751545324300,219317,-7.5613,0.5157,6.3960,0.1222,0.0464,-0.0330,19.85
306751557050700,219328,-7.5374,0.4869,6.5839,0.1503,0.0342,-0.0269,19.82
306751568133900,219339,-7.4728,0.5420,6.5300,0.1796,0.0318,-0.0220,19.82
306751579359500,219351,-7.4501,0.8303,6.4152,0.1845,0.0134,-0.0073,19.79
306751590542500,219362,-7.5601,1.2036,6.2704,0.1698,-0.0403,-0.0024,19.80
306751602027800,219373,-7.5637,1.2873,6.2118,0.1271,-0.0684,-0.0611,19.80
306751613131000,219384,-7.5733,0.7418,6.2321,0.0953,-0.1014,-0.1283,19.82
306751624052100,219396,-7.5087,0.6269,6.4965,0.1319,-0.1222,-0.1014,19.82
306751635035300,219407,-7.6068,0.9392,6.5085,0.0867,-0.1210,-0.0660,19.82
306751647033000,219418,-7.5087,1.0193,6.5527,0.0843,-0.1112,-0.0623,19.82
306751658160100,219429,-7.5087,1.0301,6.3673,0.0440,-0.1100,-0.0660,19.80
306751669194400,219441,-7.4225,0.8746,6.5898,-0.0061,-0.1271,-0.0831,19.80
306751680361100,219452,-7.6199,0.9906,6.4798,-0.0318,-0.1368,-0.0806,19.79
306751692181600,219463,-7.3663,0.8219,6.5611,-0.0684,-0.1344,-0.0733,19.79
306751703128300,219474,-7.4788,0.6030,6.1340,-0.1087,-0.1539,-0.0757,19.79
306751714285900,219486,-7.5171,0.6664,6.3996,-0.1063,-0.1943,-0.0696,19.82
306751726065700,219497,-7.4297,0.6808,6.6066,-0.0867,-0.2126,-0.0782,19.82
306751737141600,219508,-7.5087,0.6221,6.6281,-0.0562,-0.2089,-0.0623,19.87
306751748285900,219520,-7.7240,0.9607,6.5515,-0.0244,-0.1955,-0.0354,19.87
306751759469100,219531,-7.6774,0.9344,6.6365,-0.0586,-0.1454,-0.0476,19.82
306751771275400,219542,-7.7109,0.3888,6.6796,-0.1148,-0.1210,-0.0562,19.80
306751782466800,219553,-7.7336,0.6365,6.4750,-0.0403,-0.0855,-0.0244,19.80
306751793492100,219565,-7.7013,0.9966,6.3326,-0.0012,-0.0635,-0.0049,19.79
306751805187900,219576,-7.5673,1.1163,6.3565,-0.0159,-0.0623,-0.0208,19.79
306751816314200,219587,-7.5374,0.9069,6.5719,-0.0452,-0.0696,-0.0513,19.79
306751827373000,219598,-7.5242,0.5719,6.5396,-0.0379,-0.0660,-0.0684,19.79
306751838418000,219610,-7.5876,0.4582,5.9474,-0.0098,-0.0660,-0.0586,19.80
306751850204100,219621,-7.8305,0.8171,7.1210,0.0098,-0.1112,-0.0244,19.83
306751861154400,219632,-7.4524,0.4989,6.7549,0.0354,-0.0354,-0.0574,19.83
306751872348800,219643,-7.6666,0.9763,6.4295,0.0134,-0.0098,-0.0208,19.82
306751883502900,219655,-7.7587,0.9930,6.5910,0.0086,0.0000,-0.0183,19.82
306751895089900,219666,-7.6355,1.1139,6.6185,0.0648,0.0305,-0.0293,19.83
306751906200600,219677,-7.4297,1.0337,6.7202,0.0709,0.0660,-0.0269,19.83
306751917307600,219688,-7.4572,1.1414,6.3948,0.0574,0.0721,-0.0318,19.77
306751928609600,219700,-7.7468,0.6293,6.8590,0.0110,0.0586,-0.0415,19.77
306751940104200,219711,-7.8174,0.3350,6.0802,0.1148,0.1112,-0.0024,19.79
306751951173600,219722,-7.6044,0.4594,6.5192,0.1918,0.1002,0.0232,19.82
306751962420500,219734,-7.6427,0.6508,6.5384,0.1881,0.0977,0.0318,19.82
306751973389000,219745,-7.5194,0.5683,6.3099,0.1918,0.1038,0.0208,19.80
306751985077700,219756,-7.5230,0.6712,6.2249,0.2211,0.0806,0.0134,19.80
306751996438300,219767,-7.6008,0.5934,6.5635,0.1772,0.0464,-0.0024,19.84
306752007278500,219779,-7.5912,0.4355,6.4271,0.2187,0.0464,-0.0293,19.84
306752018461300,219790,-7.5506,0.5204,6.5073,0.2859,0.0281,-0.0354,19.76
306752030059300,219801,-7.5589,1.1139,6.3829,0.2358,-0.0305,-0.0476,19.76
306752041207600,219812,-7.5290,1.2897,6.1460,0.1637,-0.0501,-0.1063,19.76
306752052075200,219824,-7.5685,0.9380,5.9856,0.1478,-0.0880,-0.1478,19.80
306752063646800,219835,-7.5541,0.8973,6.5073,0.1307,-0.1185,-0.0977,19.80
306752075134200,219846,-7.6092,0.9308,6.6975,0.1075,-0.1038,-0.0550,19.81
306752086211300,219857,-7.5984,0.9248,6.3757,0.1136,-0.0819,-0.0550,19.81
306752097360700,219869,-7.5338,1.0481,6.2788,0.1014,-0.0929,-0.0696,19.79
306752108505000,219880,-7.4955,0.3470,6.5216,0.0635,-0.1210,-0.1100,19.79
306752120125800,219891,-7.4788,0.8160,6.8590,0.0843,-0.1429,-0.0929,19.76
306752131242100,219902,-7.4297,0.9571,6.5707,0.0757,-0.1124,-0.0696,19.80
306752142312400,219914,-7.4740,1.0325,6.3470,0.0550,-0.1161,-0.0648,19.80
306752153321400,219925,-7.1557,1.1701,6.1591,0.0147,-0.1515,-0.0672,19.80
306752165477300,219936,-7.3519,0.9942,6.2465,-0.0672,-0.2236,-0.0941,19.80
306752176470400,219948,-7.4297,1.0935,6.2429,-0.1173,-0.2810,-0.1148,19.82
306752187505900,219959,-7.8185,0.9595,6.6293,-0.2053,-0.3103,-0.1368,19.82
306752199159300,219970,-7.6451,1.1174,6.3470,-0.1906,-0.2639,-0.1429,19.81
306752210278600,219981,-7.8185,0.9416,6.1579,-0.2786,-0.1808,-0.1747,19.82
306752221456700,219993,-7.7384,0.8806,6.3984,-0.2297,-0.1857,-0.1906,19.82
306752233079200,220004,-7.7169,0.4499,6.6485,-0.1820,-0.1588,-0.1772,19.83
306752244071900,220015,-7.6546,0.2154,6.8207,-0.0953,-0.1161,-0.1173,19.83
306752255170400,220026,-7.6259,0.4271,6.6018,-0.0305,-0.0806,-0.0648,19.80
306752266697600,220038,-7.6403,0.6796,6.3972,0.0086,-0.0660,-0.0379,19.80
306752278112400,220049,-7.5601,0.8566,6.3099,0.0330,-0.0635,-0.0281,19.81
306752289188600,220060,-7.7480,1.1809,6.5372,0.0049,-0.0794,-0.0538,19.81
306752300475900,220071,-7.8437,0.9559,6.9260,-0.0721,-0.0476,-0.0941,19.82
306752311557400,220083,-7.5888,0.6150,6.7119,-0.0208,0.0110,-0.1112,19.83
306752323057000,220094,-7.5613,0.4558,6.6305,0.0037,0.0452,-0.0770,19.83
306752334394600,220105,-7.6846,0.4295,6.3757,0.0269,0.0623,-0.0330,19.86
306752345371900,220116,-7.4991,0.4857,6.3757,0.0428,0.0586,-0.0049,19.86
306752356338500,220128,-7.6522,0.3984,6.6006,0.0525,0.0440,0.0024,19.82
306752368134200,220139,-7.5709,0.5240,6.5910,0.1014,0.0599,0.0208,19.82
306752379462900,220150,-7.8532,0.8315,6.4295,0.0990,0.0770,0.0379,19.82
306752390171100,220162,-7.4812,0.7813,6.8136,0.1185,0.0855,0.0330,19.81
306752401677300,220173,-7.5673,0.5647,6.2584,0.0990,0.1014,0.0147,19.81
306752412997300,220184,-7.4943,0.6999,6.3805,0.1038,0.0757,0.0147,19.83
306752424302800,220195,-7.4118,0.8674,6.4199,0.0745,0.0464,0.0012,19.83
306752435766100,220207,-7.5111,0.7095,6.4893,0.0257,0.0232,-0.0171,19.84
306752446512800,220218,-7.6283,0.5838,6.4845,0.0330,0.0159,-0.0244,19.84
306752457968000,220228,-7.4752,0.6126,6.4941,0.0391,0.0134,-0.0269,19.82
306752469148600,220240,-7.4501,0.6221,6.3793,0.0391,-0.3128,-0.0208,19.82
306752480455200,220252,-7.5745,0.8016,6.5420,0.0476,-0.0635,-0.0159,19.79
306752491479400,220263,-7.6235,0.5372,6.7370,0.0660,-0.0574,-0.0220,19.84
306752503175600,220274,-7.5984,0.2895,6.5862,0.1136,-0.0342,-0.0086,19.84
306752514339500,220285,-7.3723,0.4451,6.3936,0.1539,-0.0281,0.0269,19.85
306752525411800,220297,-7.3831,0.5755,5.7571,0.1417,-0.0684,0.0391,19.85
306752537186500,220308,-7.4058,0.6185,6.0395,0.1393,-0.1649,0.0208,19.82
306752548064500,220318,-7.4824,0.6281,6.2824,0.1820,-0.2407,-0.0220,19.82
306752559074000,220331,-7.7707,0.5539,6.6150,0.2358,-0.3067,-0.1356,19.89
306752570327000,220342,-7.5709,0.8052,6.8949,0.2150,-0.2700,-0.0929,19.81
306752581844300,220353,-7.6726,0.9571,6.8794,0.1796,-0.2101,-0.0586,19.81
306752593345700,220364,-7.5278,1.6774,6.6724,0.1784,-0.1637,-0.0513,19.82
306752604385100,220376,-7.5242,1.2012,6.3625,0.0941,-0.1442,-0.1051,19.82
306752615549900,220387,-7.7001,1.1940,6.2058,0.0892,-0.1454,-0.1026,19.82
306752627088200,220398,-7.6534,0.9260,6.4869,0.0452,-0.1527,-0.1051,19.82
306752638128600,220409,-7.5924,0.8925,6.6676,0.0562,-0.1368,-0.1002,19.82
306752649052200,220421,-7.6271,0.9188,6.4989,0.0696,-0.1026,-0.0770,19.82
306752660257200,220432,-7.5864,0.6867,6.6736,0.0538,-0.0916,-0.0696,19.82
306752672060700,220443,-7.5769,0.7466,6.6042,0.0819,-0.0696,-0.0476,19.83
306752683083800,220454,-7.6331,1.2024,6.3829,0.0745,-0.0550,-0.0330,19.83
306752694116200,220466,-7.7719,1.4201,6.3290,0.0012,-0.0550,-0.0574,19.85
306752705108600,220477,-7.8724,1.0816,6.6616,-0.0379,-0.0403,-0.1136,19.85
306752717042400,220488,-7.7252,0.3673,6.5420,-0.0024,0.0086,-0.1356,19.83
306752728128500,220499,-7.8556,0.4738,6.8363,0.0244,0.0342,-0.0843,19.83
306752739243100,220511,-7.5769,0.7717,6.3159,0.1466,0.1038,-0.0220,19.85
306752750292000,220522,-7.7336,1.0708,6.4463,0.1356,0.0990,-0.0110,19.84
306752762058100,220533,-7.3759,0.9392,6.6915,0.1197,0.1136,-0.0122,19.84
306752773160100,220545,-7.6869,0.7705,6.3769,0.0892,0.1258,-0.0073,19.84
306752784325600,220556,-7.4584,0.9679,6.5635,0.0855,0.1258,0.0110,19.84
306752795441700,220567,-7.5721,0.8243,6.4702,0.0648,0.1173,-0.0049,19.85
306752807063000,220577,-7.5362,0.8889,6.4032,0.0782,0.1136,-0.0012,19.85
306752818154100,220589,-7.5003,0.8112,6.4128,0.0489,0.1051,0.0073,19.88
306752829405600,220600,-7.4249,0.8363,6.4152,0.0208,0.0831,0.0086,19.84
306752840525500,220611,-7.4094,0.6389,6.2847,0.0061,0.0538,-0.0024,19.84
306752852112000,220622,-7.5206,0.7107,6.3685,0.0208,0.0122,-0.0073,19.85
306752863225000,220634,-7.5171,0.7573,6.3565,0.0305,-0.0159,-0.0147,19.85
306752874435600,220645,-7.6654,0.6867,6.2524,0.0501,-0.0354,-0.0269,19.87
306752885656600,220656,-7.6630,0.4869,6.5013,0.0770,-0.0501,-0.0171,19.87
306752897129800,220667,-7.6080,0.3625,6.5683,0.1393,-0.0403,0.0073,19.85
306752908447700,220679,-7.2933,0.5085,5.5633,0.1833,-0.0379,0.0440,19.85
306752919350200,220690,-7.2861,0.9978,6.0586,0.2150,-0.2370,0.0354,19.82
306752930515900,220701,-7.6618,1.0325,6.3984,0.1979,-0.3225,-0.0379,19.84
306752942317800,220712,-7.9549,1.1785,6.4738,0.1539,-0.3262,-0.0867,19.84
306752953387600,220724,-7.5817,1.1007,7.0062,0.1173,-0.2700,-0.0757,19.88
306752964450400,220735,-7.5326,1.0983,6.5109,0.0599,-0.2126,-0.0709,19.88
306752975719500,220746,-7.6917,1.2251,6.0323,0.0012,-0.2077,-0.0892,19.87
306752987192600,220758,-7.8030,1.1151,6.1771,-0.0489,-0.2346,-0.1161,19.87
306752998375100,220769,-7.8401,1.0624,6.5659,-0.0293,-0.2272,-0.1210,19.84
306753009375500,220780,-7.7815,0.7896,5.7332,0.0770,-0.1503,-0.1063,19.87
306753021027200,220791,-7.8317,1.1127,6.2919,0.0330,-0.1930,-0.1381,19.87
306753032172900,220803,-7.6176,0.7167,7.1809,0.0440,-0.1845,-0.1564,19.88
306753043369300,220814,-7.5781,0.8638,6.8507,0.0599,-0.0977,-0.1161,19.88
306753054618400,220825,-7.5135,0.9404,6.5204,0.0733,-0.0599,-0.0709,19.84
306753066236300,220836,-7.5781,1.1234,6.6006,0.0672,-0.0538,-0.0562,19.84
306753077153700,220848,-7.7001,1.1486,6.3613,0.0831,-0.0379,-0.0709,19.86
306753088400100,220859,-7.8939,0.9619,6.2524,0.0476,-0.0257,-0.0892,19.86
306753099623500,220870,-7.6199,0.6245,6.6760,-0.0086,0.0183,-0.1173,19.86
306753111130100,220881,-7.5458,0.4056,6.6772,0.0122,0.0550,-0.0562,19.88
306753122248000,220893,-7.5159,0.7466,6.6461,0.0428,0.0721,0.0086,19.88
306753133452000,220904,-7.4728,1.1976,6.4546,0.0489,0.0782,0.0232,19.86
306753144366200,220915,-7.5386,1.4680,6.2345,0.0147,0.0672,0.0012,19.86
306753156052000,220926,-7.6738,0.9775,6.6078,-0.0257,0.0501,-0.0232,19.82
306753167305900,220938,-7.4489,0.9464,6.6317,-0.0024,0.0721,-0.0183,19.82
306753178420400,220949,-7.5458,0.7250,6.3936,-0.0318,0.0782,-0.0110,19.83
306753189445700,220960,-7.6080,0.5862,6.1831,-0.0122,0.0623,0.0122,19.86
306753201043500,220972,-7.9214,0.5468,6.4259,0.0012,0.0403,0.0183,19.86
306753212234700,220983,-7.9502,0.3099,5.9438,0.1197,0.0721,0.0305,19.87
306753223341000,220994,-8.0602,0.6078,5.8385,0.1625,0.0623,0.0037,19.87
306753234680500,221005,-7.7097,0.1448,6.7131,0.1258,0.0318,0.0183,19.87
306753245712400,221017,-7.6391,0.8171,6.3278,0.2040,0.0831,0.0538,19.87
306753257221000,221028,-7.7432,1.0289,5.8528,0.1784,0.0745,0.0684,19.87
306753268302700,221039,-7.2407,1.0708,6.8411,0.1869,0.0330,0.0061,19.87
306753279361100,221050,-7.5159,0.9727,6.4594,0.1295,-0.0159,-0.0171,19.87
306753290436500,221062,-7.6307,1.4106,6.3852,0.1576,-0.0269,-0.0269,19.84
306753302521100,221073,-7.2670,1.0780,6.8160,0.0990,-0.0562,-0.0660,19.84
306753313311900,221084,-7.3125,0.9224,6.5061,0.1210,-0.0501,-0.0721,19.89
306753324445000,221095,-7.2897,1.3220,6.7872,0.0941,-0.0770,-0.0183,19.89
306753335932400,221107,-7.2682,1.7372,6.1890,0.0354,-0.0733,-0.0672,19.83
306753347159400,221118,-7.4704,1.2694,5.5226,-0.0586,-0.1527,-0.1881,19.83
306753358258900,221129,-7.6295,0.2500,6.5850,-0.0904,-0.2590,-0.2211,19.85
306753369532600,221140,-7.6522,0.5874,6.6520,-0.0183,-0.2896,-0.1344,19.84
306753381090400,221152,-7.7288,0.6748,6.4834,-0.0269,-0.2492,-0.0806,19.84
306753392084000,221163,-7.6343,1.0397,6.3350,-0.0134,-0.2309,-0.0635,19.89
306753403499100,221174,-7.6642,0.9978,6.3171,-0.0831,-0.2370,-0.0806,19.89
306753414541300,221186,-7.6881,0.7848,6.3494,-0.1026,-0.2443,-0.0892,19.86
306753426289900,221197,-7.6283,1.0385,6.3709,-0.0965,-0.2395,-0.0757,19.86
306753437214300,221208,-7.8293,1.0385,6.2393,-0.1405,-0.2334,-0.0819,19.92
306753448530000,221219,-7.4943,1.0026,6.6640,-0.1503,-0.1943,-0.0831,19.92
306753460031200,221231,-7.7396,0.9715,6.3326,-0.1038,-0.1784,-0.1026,19.86
306753471115300,221242,-7.6439,0.9392,6.6030,-0.0586,-0.1698,-0.1026,19.84
306753482467300,221253,-7.7767,0.9523,6.5204,-0.0379,-0.1417,-0.0855,19.84
306753493649600,221264,-7.6463,1.0014,6.7525,-0.0269,-0.1063,-0.0623,19.90
306753505136200,221276,-7.6008,0.9954,6.5539,-0.0440,-0.0709,-0.0574,19.90
306753516324100,221287,-7.5541,1.0851,6.4008,-0.0757,-0.0562,-0.0586,19.86
306753527466300,221298,-7.5661,0.8770,6.3721,-0.1063,-0.0635,-0.0806,19.86
306753538702200,221309,-7.6104,0.8219,6.4869,-0.1466,-0.0855,-0.0843,19.87
306753550297800,221321,-7.8963,0.3039,6.9021,-0.1307,-0.0721,-0.0782,19.89
306753561335900,221332,-7.7049,0.3386,6.8483,0.0073,0.0012,-0.0049,19.89
306753572431400,221343,-7.8006,0.8183,6.5456,0.0794,0.0599,0.0586,19.85
306753583592700,221355,-7.6989,1.3699,6.0215,0.0855,0.0880,0.0623,19.85
306753595031100,221366,-7.7025,0.8997,6.5743,0.0452,0.0721,0.0110,19.85
306753606250300,221377,-7.6881,0.8315,6.5061,0.0806,0.0880,-0.0061,19.85
306753617288200,221388,-7.5649,0.6712,6.5133,0.0843,0.1014,-0.0244,19.87
306753628450200,221400,-7.5541,0.5408,6.6796,0.0880,0.1173,-0.0086,19.87
306753640127400,221411,-7.4883,0.5216,6.3529,0.0941,0.1258,0.0024,19.82
306753651214300,221422,-7.3472,0.5264,6.1687,0.0757,0.0929,0.0098,19.89
306753662462900,221433,-7.4632,0.6114,6.4367,0.0562,0.0305,0.0061,19.89
306753673657000,221445,-7.5841,0.7549,6.5599,0.0684,0.0086,-0.0012,19.84
306753685026400,221456,-7.4871,0.7226,6.4989,0.0733,0.0098,-0.0086,19.84
306753696124300,221467,-7.5003,0.7095,6.3769,0.0733,-0.0049,-0.0061,19.87
306753707153000,221478,-7.5374,0.7777,6.3350,0.0696,-0.0281,-0.0012,19.87
306753718208900,221490,-7.6187,0.9284,6.5587,0.0733,-0.0550,-0.0037,19.88
306753730020100,221501,-7.6164,0.8949,6.5635,0.0892,-0.0415,-0.0122,19.83
306753741205200,221512,-7.4967,0.5408,6.5085,0.1014,-0.0305,-0.0195,19.83
306753752391100,221523,-7.3125,0.3589,5.9629,0.1283,-0.0476,-0.0024,19.86
306753763336200,221535,-7.4154,0.6126,5.9557,0.1246,-0.1283,0.0232,19.86
306753775024300,221546,-7.3053,0.7310,6.4331,0.1405,-0.2150,0.0012,19.92
306753786235700,221557,-7.7480,0.6592,6.4714,0.1613,-0.2553,-0.0354,19.92
306753797315800,221569,-7.8927,1.0110,6.6078,0.1662,-0.2297,-0.0232,19.88
306753808208200,221580,-7.6977,1.0971,6.2465,0.1002,-0.1710,-0.0379,19.84
306753820203800,221591,-7.2873,1.2933,6.3075,0.0867,-0.1833,-0.0648,19.84
306753831423400,221602,-7.8425,0.7956,6.2082,0.0061,-0.2285,-0.1210,19.84
306753842272600,221614,-7.6881,1.1354,6.5874,0.0330,-0.2248,-0.1136,19.84
306753853988800,221625,-7.8556,0.7525,6.6652,0.0049,-0.1869,-0.1075,19.86
306753865200200,221636,-7.6140,1.0839,6.5252,0.0635,-0.1381,-0.0794,19.86
306753876233800,221647,-7.7707,1.1904,6.2166,0.0354,-0.1234,-0.1026,19.86
306753887313200,221659,-7.5900,0.9428,6.6138,-0.0012,-0.1258,-0.1295,19.86
306753899059800,221670,-7.5601,0.9117,6.6532,0.0342,-0.0867,-0.0489,19.89
306753910266500,221681,-7.6128,1.2036,6.3960,0.0110,-0.0611,-0.0122,19.89
306753921481300,221692,-7.8138,1.5494,6.1161,-0.0489,-0.0684,-0.0379,19.89
306753932328200,221704,-7.8939,1.1127,6.8028,-0.1173,-0.0696,-0.1063,19.83
306753944231000,221715,-7.7695,0.3170,6.7561,-0.0220,-0.0073,-0.1527,19.83
306753955199200,221726,-7.7504,0.4451,6.5073,0.0538,0.0440,-0.1112,19.89
306753966381900,221737,-7.5984,0.6736,6.4606,0.0672,0.0684,-0.0550,19.89
306753977599300,221749,-7.4201,1.0756,6.3314,0.0696,0.0757,-0.0257,19.86
306753989218900,221760,-7.8018,0.9476,6.4857,0.0244,0.0684,-0.0159,19.90
306754000364200,221771,-7.5218,0.6425,7.0875,0.0550,0.1002,-0.0159,19.90
306754011448300,221783,-7.4058,0.6173,6.4032,0.0806,0.1491,0.0098,19.89
306754022487500,221794,-7.4237,0.7741,6.0503,0.0660,0.1161,0.0171,19.89
306754034063400,221805,-7.4812,0.8818,6.1914,0.0525,0.0464,-0.0024,19.89
306754045281600,221816,-7.4871,0.6042,6.6353,0.0391,0.0073,-0.0122,19.89
306754056282900,221828,-7.3902,0.6784,6.6592,0.0831,0.0061,-0.0049,19.87
306754067501400,221839,-7.4524,0.9009,6.3577,0.0501,0.0012,0.0134,19.87
306754079133500,221850,-7.6068,0.8399,6.6114,0.0806,-0.0342,-0.0195,19.87
306754090214300,221861,-7.6187,0.7848,6.5480,0.1112,-0.0183,-0.0159,19.88
306754101220500,221873,-7.4010,0.5180,6.2501,0.1356,-0.0110,-0.0110,19.88
306754112382200,221884,-7.4333,0.3039,5.6794,0.1478,-0.0623,0.0159,19.89
306754124210400,221895,-7.4046,0.5264,6.1950,0.1552,-0.1564,0.0635,19.89
306754135425600,221906,-7.2849,0.7669,6.5360,0.1930,-0.2162,0.0684,19.86
306754146483400,221918,-7.7300,1.0564,6.3685,0.1955,-0.2456,0.0342,19.86
306754157412600,221929,-7.8784,1.3005,6.5862,0.1918,-0.2395,-0.0061,19.88
306754169327800,221940,-7.6522,1.1844,6.5755,0.1600,-0.1662,-0.0428,19.87
306754180265400,221952,-7.7133,1.2371,6.0574,0.1100,-0.1442,-0.0623,19.87
306754191336100,221963,-7.7803,1.2215,6.2584,0.0623,-0.1600,-0.0953,19.89
306754202945500,221974,-7.6570,0.7597,6.6748,0.0880,-0.1527,-0.1063,19.89
306754214243400,221985,-7.6176,1.1139,6.6090,0.0904,-0.1210,-0.0892,19.86
306754225280100,221997,-7.6750,1.1880,6.2512,0.0354,-0.1038,-0.1222,19.86
306754236290300,222008,-7.6475,1.1174,6.2824,0.0269,-0.1100,-0.1466,19.91
306754248126700,222019,-7.6367,0.8112,6.6760,0.0086,-0.1063,-0.1381,19.91
306754259246200,222030,-7.6199,0.9523,6.6425,0.0342,-0.0586,-0.0684,19.86
306754270886700,222042,-7.5721,1.1091,6.3051,0.0367,-0.0354,-0.0574,19.88
306754281529800,222053,-7.7372,1.4788,6.4307,0.0330,-0.0452,-0.0562,19.88
306754293083800,222064,-7.8401,1.3316,6.6999,0.0171,-0.0208,-0.0965,19.89
306754304357200,222075,-7.5529,0.8554,6.5671,0.0611,0.0305,-0.1307,19.89
306754315711900,222087,-7.7121,0.6449,6.1196,0.0696,0.0428,-0.1002,19.85
306754326420100,222098,-7.8544,0.8794,6.4714,0.0855,0.0367,-0.0623,19.85
306754338285200,222109,-7.7324,0.7525,6.4953,0.1087,0.0635,-0.0244,19.86
306754349531900,222120,-7.6534,0.7430,6.4487,0.1295,0.1026,-0.0049,19.87
306754360497000,222132,-7.5649,0.9476,6.2728,0.1185,0.1075,0.0098,19.87
306754371632700,222143,-7.5829,0.8746,6.2836,0.0929,0.0867,0.0061,19.87
306754383098600,222154,-7.7133,0.9595,6.4068,0.1173,0.0696,-0.0073,19.87
306754394250800,222166,-7.6606,1.0229,6.7896,0.1344,0.0782,-0.0208,19.85
306754405707400,222177,-7.6463,0.5659,6.1125,0.1955,0.1148,-0.0415,19.85
306754416506200,222188,-7.6044,0.7585,6.2608,0.2236,0.0867,-0.0220,19.90
306754428115100,222198,-7.6439,1.0433,6.4020,0.2639,0.0525,-0.0122,19.90
306754439221900,222210,-7.6499,1.1809,6.2381,0.3164,0.0501,-0.0367,19.86
306754450444000,222221,-7.5099,1.1617,6.1508,0.2810,0.0330,-0.0489,19.84
306754461942400,222232,-7.5111,1.1234,6.5013,0.2211,0.0061,-0.0293,19.84
306754473110300,222243,-7.5565,0.8997,6.1149,0.2260,0.0086,-0.0208,19.86
306754484560900,222255,-7.5577,1.0708,6.2249,0.2505,-0.0220,0.0159,19.86
306754495491000,222266,-7.6714,1.1976,6.5085,0.2761,-0.0367,0.0342,19.87
306754507179800,222277,-7.6558,1.2359,6.3757,0.2993,-0.0244,0.0171,19.87
306754518359400,222288,-7.6666,1.3232,5.6889,0.2737,-0.0819,-0.1307,19.89
306754529357600,222301,-7.4776,0.6628,5.9641,0.2065,-0.1539,-0.1772,19.87
306754540607600,222312,-7.3986,0.3817,6.4475,0.1478,-0.2077,-0.1246,19.87
306754552225900,222323,-7.3304,0.8423,6.2584,0.2065,-0.2334,-0.0562,19.84
306754563227300,222334,-7.6331,1.3113,6.4128,0.1735,-0.2822,-0.0220,19.84
306754574399100,222346,-7.8772,1.7695,6.0670,0.1735,-0.2639,-0.0269,19.91
306754586032600,222357,-7.9214,1.9143,5.9797,0.0171,-0.2651,-0.1136,19.91
306754597264700,222368,-7.5876,1.4740,6.6341,-0.0782,-0.2566,-0.1136,19.83
306754608350700,222380,-7.7324,1.3914,6.0622,-0.1307,-0.1442,-0.0367,19.88
306754619637100,222391,-7.7946,1.5326,6.1137,-0.1686,-0.1478,-0.0318,19.88
306754631160700,222402,-7.6475,1.4082,6.3912,-0.1759,-0.1539,-0.0648,19.89
306754642232000,222413,-7.6857,1.3555,6.2680,-0.2443,-0.1491,-0.0892,19.89
306754653258600,222425,-7.7061,1.1581,6.3242,-0.2615,-0.1442,-0.1038,19.87
306754665068100,222436,-7.6702,0.6939,6.3781,-0.2162,-0.1356,-0.1124,19.87
306754676505000,222447,-7.7109,0.3553,5.7835,-0.1161,-0.1307,-0.0941,19.84
306754687731700,222458,-7.3950,0.4546,7.2861,-0.0819,-0.1747,-0.0965,19.84
306754698551700,222470,-7.5206,1.0768,6.9093,-0.0098,-0.0990,0.0061,19.85
306754710041000,222481,-7.7587,1.4883,6.0670,-0.0159,-0.0574,0.0281,19.87
306754720965300,222492,-7.8903,2.0889,6.2441,-0.0574,-0.0745,-0.0745,19.87
306754732163700,222503,-7.2909,0.9990,6.4546,-0.1393,-0.0831,-0.1686,19.88
306754744019100,222515,-7.8604,1.1246,6.0359,-0.1649,-0.0806,-0.1258,19.88
306754755189000,222526,-7.8150,1.0002,6.4475,-0.1869,-0.0904,-0.1368,19.87
306754766394700,222537,-7.5494,0.6616,6.5121,-0.1344,-0.0806,-0.1332,19.87
306754777404800,222548,-7.6355,0.7107,6.7047,-0.1161,-0.0574,-0.0464,19.87
306754788919300,222560,-7.8796,0.5898,6.4164,0.0220,0.0049,-0.0122,19.89
306754800153600,222571,-7.9418,0.9631,6.1699,0.1124,0.0391,-0.0012,19.89
306754811422400,222582,-7.5793,0.4415,6.7478,0.0684,0.0318,-0.0049,19.86
306754822185300,222594,-7.7121,0.7238,6.6796,0.1466,0.0794,0.0428,19.86
306754834037700,222605,-7.4644,1.3627,6.4786,0.1185,0.1148,0.0733,19.86
306754845073000,222616,-7.5350,1.5182,6.4511,0.0464,0.1112,0.0476,19.86
306754856223400,222627,-7.5685,1.4010,6.3649,0.0012,0.1087,0.0086,19.84
306754867378000,222639,-7.6116,1.0528,6.4762,-0.0269,0.1026,-0.0476,19.84
306754879028400,222650,-7.6092,0.6030,6.3398,-0.0342,0.0941,-0.0611,19.88
306754890208800,222661,-7.6391,0.5503,6.3805,0.0269,0.0929,-0.0367,19.83
306754901235600,222672,-7.8544,0.4642,6.0826,0.0733,0.0916,-0.0122,19.83
306754912322500,222684,-7.5398,0.3793,6.3302,0.1429,0.0745,-0.0073,19.88
306754923995900,222695,-7.6199,0.5216,6.1723,0.1955,0.0501,0.0086,19.88
306754935087900,222706,-7.7982,0.7214,6.1304,0.2272,0.0281,0.0232,19.87
306754946130800,222717,-7.7073,0.8626,5.9605,0.2932,0.0086,0.0098,19.87
306754957065400,222729,-7.5685,0.9188,6.6628,0.2505,-0.0232,-0.0586,19.89
306754968949500,222740,-7.4608,0.9978,5.8911,0.2040,-0.0049,-0.0806,19.86
306754980166900,222751,-7.4752,1.3029,6.1579,0.1527,-0.0696,-0.0428,19.86
306754991309300,222763,-7.4572,1.6199,6.5707,0.1210,-0.1002,-0.0232,19.87
306755002577500,222774,-7.3890,1.6044,6.5922,0.0819,-0.0990,-0.0452,19.87
306755014163600,222785,-7.3866,1.6247,6.0694,0.0073,-0.1063,-0.0977,19.86
306755025195400,222796,-7.4632,1.0720,5.8828,-0.0819,-0.1796,-0.1723,19.86
306755036560900,222808,-7.3448,0.5934,6.3338,-0.0831,-0.2553,-0.1894,19.89
306755047468600,222819,-7.5984,0.8100,6.2489,-0.0709,-0.3250,-0.0941,19.89
306755059346600,222830,-7.7240,1.2526,6.3159,-0.0660,-0.3335,-0.0550,19.87
306755070476100,222841,-8.0530,1.3053,6.3470,-0.1063,-0.3128,-0.0525,19.88
306755081514000,222853,-7.8736,1.1402,6.6066,-0.1234,-0.2553,-0.0684,19.88
306755093105300,222864,-7.8030,0.8686,6.4271,-0.1503,-0.2065,-0.0855,19.88
306755104592900,222875,-7.7515,0.8782,6.2369,-0.1246,-0.1796,-0.0770,19.88
306755115439700,222886,-7.9430,1.1569,6.1747,-0.1014,-0.1662,-0.0611,19.86
306755127038700,222898,-7.6822,1.3101,6.6377,-0.0367,-0.1405,-0.0513,19.86
306755138194800,222909,-7.6391,1.3149,6.3960,-0.0489,-0.0794,-0.0648,19.88
306755149338000,222920,-7.6475,1.1378,6.1866,-0.1210,-0.0721,-0.0867,19.86
306755160179000,222931,-7.6068,0.7609,6.4487,-0.1833,-0.0892,-0.1002,19.86
306755172108500,222943,-7.5781,0.7490,6.6293,-0.1759,-0.0867,-0.0880,19.91
306755183241200,222954,-7.6164,0.5958,6.3745,-0.1527,-0.0696,-0.0757,19.91
306755194413800,222965,-7.6008,0.8459,6.4092,-0.1075,-0.0721,-0.0525,19.90
306755205587600,222977,-7.6355,0.7454,6.5109,-0.1002,-0.0757,-0.0525,19.90
306755217323700,222988,-7.7324,0.7801,6.5216,-0.0586,-0.0648,-0.0452,19.87
306755228307700,222999,-7.6834,1.1330,6.5731,0.0415,0.0037,0.0330,19.89
306755239315000,223010,-7.6738,1.1509,6.3517,0.0733,0.0281,0.0171,19.89
306755250470000,223022,-7.7037,0.9452,6.5408,0.0904,0.0354,0.0012,19.86
306755262074700,223033,-7.5876,0.9823,6.1854,0.0806,0.0538,0.0000,19.86
306755273279700,223044,-7.7372,0.7250,6.2261,0.0379,0.0318,-0.0122,19.86
306755284222300,223055,-7.7336,0.6832,6.5767,0.0525,0.0269,-0.0037,19.86
306755295558700,223067,-7.8389,0.7167,6.4798,0.0806,0.0586,0.0086,19.86
306755306933600,223078,-7.6140,0.7310,6.4104,0.0855,0.0880,0.0354,19.86
306755318222400,223089,-7.6271,0.7884,6.3386,0.0696,0.0904,-0.0134,19.87
306755329392800,223100,-7.5733,0.7825,6.3506,0.0660,0.0867,-0.0098,19.88
306755340571700,223112,-7.5458,1.0792,6.3458,0.0525,0.0733,-0.0061,19.88
306755352066000,223123,-7.4201,0.9954,6.2333,0.0159,0.0525,-0.0281,19.84
306755363298800,223134,-7.5745,1.0397,6.3529,-0.0183,0.0110,-0.0403,19.84
306755374348900,223145,-7.5386,0.8602,6.4259,-0.0367,-0.0012,-0.0476,19.86
306755385373200,223157,-7.5506,0.5097,6.3374,-0.0269,-0.0110,-0.0525,19.86
306755397140700,223168,-7.5541,0.7286,6.4056,0.0024,-0.0330,-0.0293,19.86
306755408213100,223179,-7.6929,0.7035,6.5264,0.0660,-0.0440,0.0049,19.90
306755419241300,223191,-7.6822,0.4510,6.4810,0.0990,-0.0281,0.0171,19.90
306755430932000,223202,-7.4381,0.5420,6.3960,0.1588,-0.0195,0.0501,19.89
306755442079400,223213,-7.4237,0.8889,5.6997,0.1820,-0.0476,0.0648,19.89
306755453377000,223224,-7.3340,1.2347,5.8433,0.1478,-0.1491,0.0403,19.88
306755464499000,223236,-7.3244,1.1486,6.2022,0.1307,-0.2505,-0.0354,19.88
306755475314400,223247,-7.6463,0.7107,6.5180,0.1466,-0.3091,-0.0990,19.89
306755487129000,223258,-7.9454,1.1653,6.5204,0.1784,-0.2908,-0.0819,19.89
306755498222700,223269,-7.8425,1.1773,6.3685,0.0977,-0.1857,-0.0562,19.87
306755509137700,223281,-7.5494,1.1414,6.1555,0.0806,-0.1674,-0.0867,19.83
306755520998300,223292,-7.6762,1.1665,5.9294,0.0134,-0.1979,-0.1405,19.83
306755532333000,223303,-7.6104,0.9200,6.5360,-0.0049,-0.2358,-0.1747,19.87
306755543285900,223314,-7.7779,0.8207,6.5420,-0.0024,-0.2187,-0.1710,19.87
306755554492300,223326,-7.8425,1.0947,6.3876,0.0354,-0.1772,-0.1356,19.89
306755566144500,223337,-7.7803,0.9691,6.3577,0.0709,-0.1417,-0.1112,19.89
306755577183600,223348,-7.7192,1.1031,6.3829,0.1051,-0.1185,-0.0892,19.89
306755588363300,223360,-7.6223,1.2526,6.5480,0.0819,-0.0953,-0.0953,19.90
306755599601500,223371,-7.5338,1.0169,6.5803,0.0269,-0.0757,-0.0880,19.90
306755611062200,223382,-7.5194,1.0624,6.5097,0.0024,-0.0586,-0.0599,19.84
306755622117200,223393,-7.5613,1.1151,6.2859,-0.0195,-0.0550,-0.0452,19.84
306755633302400,223405,-7.6534,1.1474,6.2417,-0.0489,-0.0684,-0.0525,19.86
306755644533500,223416,-7.8150,0.9332,6.4953,-0.0696,-0.0745,-0.0745,19.86
306755656256900,223427,-7.7755,0.5480,6.8279,-0.0257,-0.0440,-0.0892,19.86
306755667206400,223438,-7.6044,1.0325,6.2704,0.0550,0.0171,-0.0476,19.86
306755678324300,223450,-7.5745,1.1653,6.3506,0.0342,0.0086,-0.0464,19.87
306755689388900,223461,-7.6977,1.0983,6.3398,-0.0073,0.0037,-0.0501,19.89
306755701194800,223472,-7.7121,0.6592,6.8040,-0.0147,0.0208,-0.0379,19.89
306755712242900,223483,-7.6546,0.5360,6.5001,0.0635,0.0757,0.0037,19.89
306755723262900,223495,-7.8030,0.7789,6.2608,0.0623,0.0904,0.0464,19.89
306755734369700,223506,-7.6487,0.8471,6.3757,0.1087,0.1002,0.0586,19.87
306755746031700,223517,-7.6319,0.5779,6.1866,0.1381,0.1038,0.0623,19.87
306755757022700,223528,-8.1200,0.8387,6.3458,0.1820,0.0867,0.0476,19.85
306755768121100,223540,-7.4010,0.4128,7.0098,0.1637,0.0586,0.0586,19.90
306755779258500,223550,-7.5829,1.1809,6.2824,0.1991,0.1148,0.0977,19.90
306755791017600,223561,-7.4931,1.2921,6.1591,0.1527,0.0904,0.0892,19.84
306755802275600,223572,-7.8485,1.5948,5.9940,0.1991,0.0611,0.0110,19.84
306755813382400,223584,-7.3603,1.1605,6.6963,0.0501,0.0220,-0.0305,19.86
306755824400200,223595,-7.4596,1.2084,6.2261,0.0208,0.0428,-0.0244,19.86
306755836077800,223606,-7.5182,1.1725,6.1244,-0.0318,0.0037,-0.0208,19.88
306755847355400,223618,-7.5793,1.1593,6.3805,-0.0134,-0.0428,-0.0440,19.88
306755858310800,223629,-7.6343,0.9129,6.2309,-0.0037,-0.0476,-0.0550,19.86
306755869378200,223640,-7.6834,0.7262,6.2919,0.0195,-0.0599,-0.0476,19.82
306755881099400,223651,-7.7121,0.8351,6.3494,0.0391,-0.0599,-0.0220,19.82
306755892233400,223663,-7.7133,0.7657,6.3470,0.0452,-0.0538,-0.0037,19.84
306755903294500,223674,-7.7145,0.6556,6.2836,0.0599,-0.0501,0.0171,19.84
306755914302500,223685,-7.7013,0.9464,6.2740,0.0977,-0.0476,0.0428,19.87
306755926266500,223696,-7.6415,1.3220,6.2106,0.1136,-0.0464,0.0428,19.87
306755937263300,223708,-7.8712,1.1797,5.5621,0.0904,-0.0770,-0.0342,19.84
306755948678300,223719,-7.7671,0.7836,6.2728,0.0281,-0.1539,-0.1527,19.88
306755960050400,223730,-7.4273,0.0837,6.4977,0.0391,-0.1759,-0.1881,19.88
306755971462000,223741,-7.5182,0.3972,6.2560,0.1222,-0.1796,-0.1295,19.90
306755982266100,223753,-7.7827,0.9894,6.1950,0.1796,-0.2053,-0.0745,19.90
306755993399600,223764,-7.7611,1.8138,6.4104,0.1991,-0.2004,-0.0635,19.89
306756005075000,223775,-7.5147,1.8078,6.5013,0.1833,-0.1759,-0.1002,19.89
306756016236300,223787,-7.6869,1.3352,6.0885,0.1381,-0.1686,-0.1637,19.86
306756027323200,223798,-7.5577,0.7059,6.4259,0.0354,-0.2505,-0.2419,19.86
306756038258700,223809,-7.7061,0.2046,6.6197,0.1087,-0.2492,-0.2224,19.86
306756050144200,223820,-7.5422,0.7466,6.6078,0.1943,-0.2016,-0.0794,19.86
306756061134800,223832,-7.8377,1.5529,6.1005,0.1881,-0.1759,-0.0220,19.86
306756072328100,223843,-7.6953,1.9944,6.4762,0.1686,-0.1637,-0.0342,19.87
306756084175500,223854,-7.6714,1.4680,6.6520,0.1295,-0.1368,-0.0953,19.87
306756095164200,223866,-7.6367,1.1928,6.4056,0.1148,-0.1026,-0.1173,19.88
306756106377900,223878,-7.6187,0.8160,6.2979,0.1014,-0.0916,-0.1271,19.88
306756117521900,223889,-7.7192,0.7310,6.2812,0.1503,-0.0941,-0.1136,19.89
306756129145300,223900,-7.7707,1.1605,6.2656,0.1833,-0.0855,-0.0721,19.85
306756140267100,223911,-7.7683,1.4548,6.4654,0.1833,-0.0721,-0.0819,19.85
306756151463000,223923,-7.7049,1.0708,6.3745,0.1906,-0.0476,-0.1246,19.84
306756163044500,223934,-7.5960,1.0313,6.7083,0.1747,-0.0354,-0.1319,19.84
306756174208900,223945,-7.5362,0.9129,6.4343,0.1698,-0.0098,-0.1332,19.89
306756185670300,223956,-7.5027,1.1270,6.3326,0.1319,-0.0073,-0.1002,19.89
306756196528300,223968,-7.4991,1.1856,6.4140,0.0929,-0.0195,-0.0794,19.87
306756208136500,223979,-7.4764,1.1438,6.3302,0.0794,-0.0342,-0.0782,19.89
306756219234200,223990,-7.5087,1.3065,6.4020,0.0501,-0.0464,-0.0525,19.89
306756230374200,224002,-7.5709,1.3412,6.4606,0.0330,-0.0525,-0.0550,19.87
306756241477000,224013,-7.6367,1.1402,6.4343,0.0098,-0.0476,-0.0721,19.87
306756253143800,224024,-7.6606,0.8327,6.3601,-0.0061,-0.0440,-0.0782,19.87
306756264328900,224035,-7.6128,1.0265,6.2967,-0.0171,-0.0452,-0.0538,19.87
