host_timestamp,arduino_timestamp,ax,ay,az,gx,gy,gz,temperature
3108351606200,315389,-5.6566,-6.2620,-4.9627,-0.0293,0.0220,-0.0391,20.69
3108362631200,315401,-5.6183,-6.2022,-5.0740,-0.0281,0.0232,-0.0330,20.67
3108373769300,315412,-5.5872,-6.2273,-5.1458,-0.0171,0.0061,-0.0562,20.67
3108384969700,315423,-5.6100,-6.2644,-5.1135,-0.0024,-0.0183,-0.0867,20.69
3108396758600,315435,-5.5848,-6.2524,-5.0201,0.0012,-0.0293,-0.1136,20.69
3108407888800,315446,-5.4832,-6.2297,-4.9974,-0.0024,-0.0318,-0.1429,20.70
3108418852600,315457,-5.3898,-6.2728,-5.0764,-0.0073,-0.0391,-0.1710,20.70
3108430642500,315468,-5.3551,-6.3087,-5.0369,-0.0073,-0.0538,-0.1796,20.70
3108441622100,315480,-5.3348,-6.2979,-4.9615,-0.0244,-0.0550,-0.1356,20.73
3108452784000,315491,-5.3180,-6.3278,-4.9579,-0.0525,-0.0428,-0.1014,20.73
3108464569700,315502,-5.3480,-6.3553,-5.0512,-0.0794,-0.0428,-0.0709,20.70
3108475685800,315513,-5.4221,-6.2728,-5.1565,-0.0855,-0.0538,-0.0489,20.70
3108486817000,315525,-5.5202,-6.1842,-5.1721,-0.0794,-0.0611,-0.0440,20.66
3108498536100,315536,-5.5502,-6.1831,-5.1386,-0.0733,-0.0599,-0.0489,20.66
3108509695100,315547,-5.5525,-6.1962,-5.1063,-0.0660,-0.0513,-0.0562,20.68
3108520743400,315558,-5.4712,-6.2357,-5.1649,-0.0733,-0.0489,-0.0648,20.68
3108531742500,315570,-5.4556,-6.1854,-5.1912,-0.0965,-0.0574,-0.0648,20.70
3108543596400,315581,-5.4568,-6.1220,-5.2391,-0.0733,-0.0660,-0.0648,20.70
3108554604100,315592,-5.4544,-6.1161,-5.2618,-0.0415,-0.0770,-0.0672,20.70
3108565582900,315604,-5.4712,-6.1962,-5.2199,-0.0183,-0.0904,-0.0684,20.69
3108577658200,315616,-5.4867,-6.2142,-5.1266,-0.0073,-0.0977,-0.0611,20.69
3108588722700,315627,-5.4808,-6.1819,-5.0895,-0.0147,-0.0977,-0.0476,20.70
3108599635100,315638,-5.4712,-6.0933,-5.1087,-0.0293,-0.0953,-0.0403,20.70
3108611377400,315650,-5.4628,-6.0359,-5.1661,-0.0379,-0.1014,-0.0452,20.66
3108622735400,315661,-5.4640,-6.1089,-5.1494,-0.0232,-0.1075,-0.0403,20.70
3108633749800,315672,-5.4628,-6.1531,-5.1338,-0.0122,-0.1185,-0.0305,20.70
3108645465800,315683,-5.4867,-6.1795,-5.1194,-0.0061,-0.1307,-0.0208,20.70
3108656670000,315695,-5.5322,-6.1316,-5.0824,0.0012,-0.1344,-0.0134,20.70
3108667763500,315706,-5.5549,-6.1340,-5.0656,-0.0037,-0.1332,-0.0086,20.64
3108678839300,315717,-5.5729,-6.1244,-5.0943,-0.0049,-0.1295,-0.0098,20.64
3108690563800,315728,-5.6303,-6.1460,-5.0931,0.0000,-0.1271,-0.0159,20.68
3108701728800,315740,-5.6255,-6.1890,-5.1410,0.0049,-0.1185,-0.0171,20.67
3108712862200,315751,-5.6219,-6.2118,-5.2020,0.0159,-0.1234,-0.0098,20.67
3108723817100,315762,-5.5956,-6.1591,-5.0979,0.0305,-0.1332,0.0000,20.70
3108735643500,315773,-5.5430,-6.0957,-4.9854,0.0342,-0.1344,0.0049,20.70
3108746727400,315785,-5.5573,-6.0526,-4.9950,0.0342,-0.1197,0.0049,20.68
3108757875600,315796,-5.5896,-6.0849,-5.0094,0.0257,-0.0990,0.0012,20.68
3108769522400,315807,-5.6303,-6.2213,-5.1314,0.0244,-0.0843,0.0012,20.68
3108780700900,315819,-5.6363,-6.1902,-5.1230,0.0208,-0.0867,-0.3067,20.68
3108791848800,315830,-5.6124,-6.2094,-5.1159,0.0171,-0.0990,-0.0183,20.70
3108802846200,315841,-5.5896,-6.2010,-5.0931,0.0073,-0.0977,-0.0269,20.69
3108814554000,315852,-5.6435,-6.2070,-5.0919,-0.0049,-0.0880,-0.0183,20.69
3108825798800,315864,-5.6566,-6.1292,-5.0465,0.0024,-0.0782,-0.0061,20.70
3108836849500,315875,-5.6710,-6.0574,-5.0955,-0.0024,-0.0635,0.0024,20.70
3108847912100,315886,-5.7440,-6.1232,-5.1051,-0.0037,-0.0586,-0.0049,20.71
3108859528900,315897,-5.7021,-6.0443,-5.0871,-0.0049,-0.0525,-0.0086,20.71
3108870662200,315909,-5.6698,-6.0550,-5.1027,-0.0134,-0.0476,-0.0208,20.69
3108881855300,315920,-5.6435,-6.0981,-5.1386,0.0195,-0.0501,-0.0257,20.69
3108893572800,315931,-5.6064,-6.0885,-5.1673,0.0489,-0.0586,-0.0293,20.69
3108904662100,315942,-5.5454,-6.0156,-5.1709,0.0782,-0.0696,-0.0330,20.70
3108915715900,315954,-5.5047,-6.0981,-5.1398,0.0892,-0.0770,-0.0391,20.70
3108926949100,315965,-5.4736,-6.2010,-5.1278,0.0941,-0.0843,-0.0391,20.69
3108938702300,315976,-5.4520,-6.2441,-5.1302,0.0867,-0.0916,-0.0342,20.69
3108949739300,315987,-5.4580,-6.2859,-5.1338,0.0855,-0.1038,-0.0330,20.73
3108960668800,315999,-5.5083,-6.3159,-5.0489,0.0672,-0.1112,-0.0342,20.66
3108972582300,316010,-5.5382,-6.2955,-5.0130,0.0489,-0.1063,-0.0342,20.66
3108983723400,316021,-5.5621,-6.2776,-5.0022,0.0354,-0.1014,-0.0330,20.68
3108994992200,316033,-5.6052,-6.2429,-4.9663,0.0122,-0.0953,-0.0257,20.68
3109006244400,316044,-5.6602,-6.1723,-4.9519,-0.0208,-0.0880,-0.0134,20.71
3109017583000,316055,-5.7272,-6.1149,-4.9531,-0.0391,-0.0770,-0.0061,20.71
3109028807000,316066,-5.8002,-6.0610,-5.0094,-0.0269,-0.0648,-0.0049,20.69
3109039785200,316078,-5.8146,-6.1029,-5.0584,0.0000,-0.0599,-0.0110,20.69
3109051775900,316089,-5.7966,-6.1364,-4.9938,0.0464,-0.0721,-0.0281,20.71
3109062760500,316100,-5.7571,-6.1364,-4.9137,0.0354,-0.0696,-0.0281,20.70
3109073726400,316111,-5.7236,-6.1735,-4.9424,0.0183,-0.0599,-0.0330,20.70
3109085284800,316124,-5.7416,-6.2309,-4.9950,0.0147,-0.0476,-0.0367,20.69
3109096579700,316135,-5.6877,-6.1519,-5.0836,0.0293,-0.0428,-0.0354,20.69
3109107641200,316146,-5.6614,-6.0790,-5.1386,0.0501,-0.0452,-0.0415,20.67
3109118856800,316157,-5.6459,-6.1089,-5.1302,0.0745,-0.0489,-0.0525,20.67
3109130523400,316169,-5.5705,-6.2644,-5.0130,0.0831,-0.0489,-0.0525,20.66
3109141588300,316180,-5.5657,-6.2369,-5.0405,0.0525,-0.0367,-0.0281,20.70
3109152877400,316191,-5.6004,-6.1866,-5.1075,0.0440,-0.0318,-0.0244,20.70
3109164498900,316203,-5.6722,-6.1484,-5.1159,0.0562,-0.0232,-0.0269,20.70
3109175441700,316214,-5.6674,-6.1579,-5.0764,0.0684,-0.0171,-0.0305,20.70
3109186481200,316225,-5.5801,-6.1831,-5.1182,0.0745,-0.0220,-0.0379,20.69
3109197690900,316236,-5.5872,-6.2441,-5.1171,0.0574,-0.0342,-0.0476,20.69
3109209742200,316248,-5.6207,-6.2058,-5.0704,0.0428,-0.0452,-0.0464,20.66
3109220618500,316259,-5.6231,-6.1472,-5.0429,0.0440,-0.0354,-0.0476,20.66
3109231846000,316270,-5.6148,-6.2584,-5.0572,0.0562,-0.0379,-0.0525,20.68
3109243578500,316281,-5.6387,-6.2596,-5.0058,0.0501,-0.0415,-0.0476,20.68
3109254658600,316293,-5.6411,-6.1771,-4.9579,0.0330,-0.0391,-0.0403,20.68
3109265705800,316304,-5.6303,-6.1137,-5.0094,0.0342,-0.0293,-0.0440,20.67
3109276898600,316315,-5.6387,-6.1208,-5.0776,0.0525,-0.0257,-0.0574,20.67
3109288537800,316326,-5.6255,-6.2022,-5.0716,0.0745,-0.0318,-0.0721,20.65
3109299756900,316338,-5.5968,-6.2764,-4.9759,0.0843,-0.0367,-0.0794,20.65
3109310926100,316349,-5.4748,-6.2166,-5.0082,0.0721,-0.0428,-0.0867,20.68
3109322451200,316360,-5.4700,-6.2393,-5.0477,0.0794,-0.0476,-0.0953,20.68
3109333743200,316371,-5.4879,-6.3003,-5.0572,0.0819,-0.0525,-0.1002,20.68
3109344706100,316383,-5.4736,-6.3182,-5.0249,0.0806,-0.0586,-0.1002,20.71
3109355851200,316394,-5.4712,-6.3051,-5.0213,0.0880,-0.0623,-0.1002,20.71
3109367688300,316405,-5.4939,-6.3194,-5.0225,0.0892,-0.0660,-0.1026,20.67
3109378813400,316417,-5.4736,-6.3194,-4.9938,0.0733,-0.0709,-0.0990,20.67
3109389852200,316428,-5.4592,-6.4463,-4.9663,0.0538,-0.0757,-0.0953,20.68
3109401424100,316439,-5.4820,-6.3601,-4.9962,0.0293,-0.0806,-0.0782,20.67
3109412754800,316450,-5.4808,-6.3027,-5.0010,0.0244,-0.0782,-0.0757,20.67
3109423843600,316462,-5.4879,-6.2907,-4.9986,0.0293,-0.0733,-0.0757,20.65
3109434853600,316473,-5.4544,-6.3661,-4.9938,0.0183,-0.0757,-0.0709,20.65
3109446634100,316484,-5.4760,-6.3506,-5.0285,0.0134,-0.0819,-0.0635,20.68
3109457643200,316495,-5.4975,-6.3015,-5.0142,0.0049,-0.0831,-0.0538,20.68
3109468831500,316507,-5.5286,-6.2572,-5.0082,-0.0049,-0.0782,-0.0513,20.65
3109480535400,316518,-5.5418,-6.2943,-5.0907,0.0037,-0.0684,-0.0599,20.65
3109491706600,316529,-5.5382,-6.2847,-5.0704,0.0464,-0.0733,-0.0623,20.61
3109502766100,316540,-5.5155,-6.3015,-5.0070,0.0501,-0.0806,-0.0635,20.67
3109513953000,316552,-5.5262,-6.3446,-4.9783,0.0501,-0.0892,-0.0684,20.67
3109525608300,316563,-5.5657,-6.3625,-4.9639,0.0415,-0.0941,-0.0733,20.69
3109536755100,316574,-5.5813,-6.3171,-4.9316,0.0305,-0.0843,-0.0684,20.69
3109547776900,316585,-5.5454,-6.2919,-4.9376,0.0293,-0.0709,-0.0660,20.68
3109559399700,316597,-5.5382,-6.3876,-4.9472,0.0293,-0.0635,-0.0684,20.68
3109570528400,316608,-5.6112,-6.4056,-4.8778,0.0061,-0.0611,-0.0538,20.69
3109581557600,316620,-5.5633,-6.2871,-4.9448,0.0122,-0.0525,-0.0464,20.68
3109592788900,316632,-5.5657,-6.2812,-5.0094,0.0257,-0.0538,-0.0550,20.68
3109604633500,316643,-5.5872,-6.2788,-5.0070,0.0428,-0.0635,-0.0635,20.70
3109615674000,316654,-5.5394,-6.3135,-4.9280,0.0464,-0.0745,-0.0635,20.70
3109626781300,316665,-5.5513,-6.3290,-4.8885,0.0464,-0.0757,-0.0599,20.65
3109638489700,316677,-5.5669,-6.3027,-4.8849,0.0415,-0.0635,-0.0489,20.65
3109649519200,316688,-5.6052,-6.2740,-4.8814,0.0440,-0.0440,-0.0367,20.69
3109660693100,316699,-5.6279,-6.2979,-4.9340,0.0244,-0.0257,-0.0134,20.67
3109671811800,316710,-5.6937,-6.2225,-5.0010,0.0257,-0.0305,-0.0086,20.67
3109683533200,316722,-5.7332,-6.2225,-5.0225,0.0538,-0.0367,-0.0122,20.69
3109694706900,316733,-5.7308,-6.2836,-4.9496,0.0880,-0.0354,-0.0208,20.69
3109705682600,316744,-5.6830,-6.3817,-4.8503,0.1002,-0.0318,-0.0330,20.71
3109717442500,316755,-5.6626,-6.3529,-4.8431,0.0953,-0.0232,-0.0379,20.71
3109728666100,316767,-5.6183,-6.2716,-4.8455,0.0635,-0.0098,-0.0391,20.68
3109739777700,316778,-5.4724,-6.2931,-5.0417,0.0452,0.0012,-0.0428,20.68
3109751512400,316789,-5.4951,-6.3829,-5.0704,0.0904,-0.0134,-0.0599,20.70
3109762653400,316801,-5.4736,-6.4534,-4.9771,0.1075,-0.0220,-0.0550,20.65
3109773793700,316812,-5.4114,-6.4618,-4.9041,0.1112,-0.0244,-0.0538,20.65
3109784828200,316823,-5.3623,-6.4499,-4.9053,0.1051,-0.0257,-0.0611,20.70
3109796609300,316834,-5.2798,-6.4714,-4.9555,0.0929,-0.0281,-0.0696,20.70
3109807646300,316846,-5.2164,-6.4834,-4.9831,0.0904,-0.0342,-0.0745,20.70
3109818740600,316857,-5.1900,-6.5862,-4.9364,0.0696,-0.0476,-0.0721,20.70
3109830567700,316868,-5.1817,-6.5587,-4.9627,0.0440,-0.0794,-0.0525,20.68
3109841559800,316879,-5.2032,-6.4678,-4.9998,0.0000,-0.0880,-0.0501,20.68
3109852679600,316891,-5.1817,-6.5097,-5.0213,0.0098,-0.0977,-0.0586,20.68
3109863799900,316902,-5.2008,-6.6006,-5.0297,0.0257,-0.1136,-0.0660,20.69
3109875458900,316913,-5.2463,-6.6592,-4.9783,0.0183,-0.1319,-0.0660,20.69
3109886623200,316924,-5.2917,-6.6233,-4.9208,-0.0086,-0.1429,-0.0599,20.67
3109897800500,316936,-5.3408,-6.5707,-4.8742,-0.0428,-0.1368,-0.0538,20.67
3109909549700,316947,-5.3599,-6.5180,-4.9029,-0.0757,-0.1307,-0.0452,20.70
3109920955000,316958,-5.5789,-6.4247,-4.9651,-0.0965,-0.1356,-0.0232,20.71
3109931620200,316969,-5.6937,-6.3781,-4.9017,-0.0855,-0.1332,-0.0110,20.71
3109942787500,316981,-5.7727,-6.2907,-4.8383,-0.0696,-0.1197,-0.0049,20.70
3109954690200,316992,-5.8229,-6.2668,-4.8239,-0.0574,-0.1026,-0.0086,20.70
3109965695800,317003,-5.8684,-6.2764,-4.7952,-0.0452,-0.0855,-0.0159,20.66
3109976851300,317015,-5.8792,-6.2871,-4.7462,-0.0391,-0.0648,-0.0195,20.66
3109988529600,317026,-5.8804,-6.2824,-4.7198,-0.0476,-0.0391,-0.0183,20.71
3109999562500,317037,-5.8086,-6.2046,-4.9663,-0.0489,-0.0195,-0.0208,20.71
3110010661900,317049,-5.7045,-6.2345,-5.0130,0.0220,-0.0171,-0.0452,20.68
3110022493500,317061,-5.6255,-6.2740,-4.9747,0.0550,-0.0208,-0.0501,20.70
3110033625600,317072,-5.5178,-6.2608,-4.9041,0.0684,-0.0183,-0.0489,20.70
3110044727200,317083,-5.5011,-6.4343,-4.9328,0.0635,-0.0073,-0.0428,20.69
3110055697000,317094,-5.4413,-6.4211,-4.8790,0.0538,0.0000,-0.0269,20.69
3110067382800,317106,-5.3874,-6.3039,-4.9507,0.0195,0.0171,-0.0049,20.70
3110078575400,317117,-5.4126,-6.3135,-5.0477,0.0342,0.0220,-0.0037,20.70
3110089720100,317128,-5.3539,-6.3577,-5.0728,0.0586,0.0098,-0.0147,20.71
3110100775500,317139,-5.3001,-6.3577,-5.0142,0.0733,-0.0257,-0.0415,20.67
3110112961400,317151,-5.2403,-6.3876,-5.0237,0.0709,-0.0318,-0.0476,20.67
3110123572700,317162,-5.2056,-6.4211,-5.0716,0.0660,-0.0415,-0.0489,20.67
3110134826200,317173,-5.2175,-6.4259,-5.0883,0.0489,-0.0525,-0.0440,20.67
3110146492900,317185,-5.2187,-6.4379,-5.0967,0.0330,-0.0672,-0.0330,20.67
3110157743700,317196,-5.2762,-6.4594,-5.1051,0.0269,-0.0831,-0.0232,20.67
3110168689400,317207,-5.3587,-6.4881,-5.0991,0.0269,-0.0965,-0.0171,20.67
3110179617700,317218,-5.4987,-6.5539,-4.9173,0.0293,-0.1063,-0.0257,20.67
3110191518600,317230,-5.5202,-6.5372,-4.8526,-0.0037,-0.0953,-0.0318,20.71
3110202789000,317241,-5.4939,-6.4845,-4.8766,-0.0244,-0.0880,-0.0367,20.71
3110213547500,317252,-5.4820,-6.4379,-4.9304,-0.0367,-0.0904,-0.0440,20.71
3110225582900,317263,-5.5322,-6.4068,-4.9220,-0.0305,-0.0953,-0.0452,20.67
3110236626600,317275,-5.5549,-6.3374,-4.8754,-0.0281,-0.0941,-0.0354,20.67
3110247751300,317286,-5.5789,-6.2847,-4.8861,-0.0232,-0.0904,-0.0281,20.70
3110259349800,317297,-5.5992,-6.2931,-4.8814,0.0000,-0.0867,-0.0281,20.70
3110270517100,317308,-5.6674,-6.3410,-4.7916,0.0134,-0.0733,-0.0134,20.70
3110281494500,317320,-5.7141,-6.3087,-4.7964,-0.0037,-0.0501,-0.0037,20.68
3110295520900,317331,-5.7404,-6.2572,-4.8610,-0.0098,-0.0257,-0.0012,20.68
3110304372300,317342,-5.7117,-6.2560,-4.9651,0.0086,-0.0134,-0.0122,20.73
3110315547800,317353,-5.6877,-6.3242,-5.0130,0.0415,-0.0122,-0.0305,20.73
3110327328900,317365,-5.6411,-6.3541,-4.9412,0.0721,-0.0110,-0.0428,20.70
3110338258700,317376,-5.5693,-6.3829,-4.9137,0.0806,-0.0073,-0.0476,20.70
3110349317500,317387,-5.4796,-6.4941,-4.9161,0.0819,-0.0037,-0.0501,20.67
3110360465300,317399,-5.4820,-6.4630,-4.9340,0.0648,0.0110,-0.0330,20.67
3110371637600,317410,-5.4520,-6.4176,-4.9663,0.0367,0.0134,-0.0318,20.67
3110383444000,317421,-5.4580,-6.3733,-5.0249,0.0220,0.0183,-0.0342,20.70
3110394623300,317432,-5.4221,-6.3829,-5.0381,0.0183,0.0208,-0.0391,20.70
3110405727100,317444,-5.3527,-6.4235,-5.0836,0.0244,0.0122,-0.0464,20.68
3110416760500,317455,-5.2869,-6.4762,-5.0788,0.0330,-0.0037,-0.0574,20.68
3110428682800,317466,-5.2403,-6.5432,-5.0381,0.0354,-0.0208,-0.0672,20.69
3110439753100,317477,-5.0991,-6.5635,-5.0070,0.0318,-0.0318,-0.0721,20.69
3110450819800,317489,-5.0692,-6.5970,-5.0166,0.0110,-0.0611,-0.0721,20.68
3110462519500,317500,-5.1171,-6.5791,-4.9783,-0.0098,-0.0745,-0.0599,20.71
3110473634100,317511,-5.2128,-6.4666,-4.9531,-0.0452,-0.0806,-0.0391,20.71
3110484600000,317522,-5.3204,-6.3888,-4.9567,-0.0721,-0.0794,-0.0244,20.70
3110496849100,317534,-5.4209,-6.3422,-5.0213,-0.0819,-0.0745,-0.0122,20.70
3110507634300,317545,-5.5418,-6.3434,-5.0788,-0.0709,-0.0757,-0.0024,20.69
3110518645900,317556,-5.6076,-6.2788,-5.0225,-0.0550,-0.0782,0.0037,20.69
3110529702500,317569,-5.7511,-6.0993,-4.9424,-0.0367,-0.0562,0.0024,20.69
3110541595300,317580,-5.7500,-6.0814,-4.9831,-0.0049,-0.0391,-0.0086,20.70
3110552613400,317591,-5.7177,-6.1436,-5.0082,0.0318,-0.0342,-0.0195,20.70
3110563647400,317602,-5.6662,-6.1771,-4.9639,0.0648,-0.0415,-0.0257,20.70
3110575465400,317614,-5.5968,-6.1950,-4.9292,0.0770,-0.0476,-0.0293,20.70
3110586621800,317625,-5.5597,-6.1986,-4.9220,0.0745,-0.0415,-0.0330,20.69
3110597524900,317636,-5.4820,-6.2118,-4.9878,0.0770,-0.0269,-0.0354,20.69
3110608770400,317647,-5.4030,-6.2800,-5.1242,0.0904,-0.0171,-0.0354,20.66
3110620658500,317659,-5.3599,-6.4176,-5.1266,0.1136,-0.0232,-0.0318,20.73
3110631561800,317670,-5.3599,-6.4953,-5.0716,0.1100,-0.0220,-0.0293,20.73
3110642643000,317681,-5.3396,-6.5384,-5.0800,0.1087,-0.0159,-0.0244,20.69
3110654436800,317692,-5.3013,-6.5994,-5.1362,0.1038,-0.0220,-0.0293,20.69
3110665503500,317704,-5.3097,-6.6556,-5.1398,0.1026,-0.0403,-0.0379,20.71
3110676459400,317715,-5.3264,-6.6903,-5.0166,0.0929,-0.0538,-0.0391,20.71
3110688422300,317726,-5.3336,-6.6760,-4.8634,0.0635,-0.0538,-0.0367,20.72
3110699621600,317737,-5.3049,-6.4893,-4.9388,0.0232,-0.0391,-0.0330,20.72
3110710665900,317749,-5.2977,-6.5180,-4.9807,0.0098,-0.0367,-0.0501,20.68
3110721833000,317760,-5.3587,-6.5216,-4.9173,0.0073,-0.0476,-0.0464,20.72
3110733574700,317771,-5.3659,-6.4582,-4.8562,-0.0061,-0.0538,-0.0354,20.72
3110744648100,317783,-5.4114,-6.3996,-4.8742,-0.0244,-0.0489,-0.0257,20.68
3110756005000,317794,-5.4377,-6.3649,-4.9340,-0.0342,-0.0403,-0.0171,20.68
3110767567000,317805,-5.4664,-6.3577,-4.9196,-0.0281,-0.0367,-0.0086,20.69
3110778689800,317816,-5.4509,-6.3685,-4.9077,-0.0257,-0.0379,-0.0024,20.69
3110789723500,317828,-5.5095,-6.2907,-4.9819,-0.0024,-0.0476,0.0024,20.66
3110800809300,317839,-5.5131,-6.3003,-4.9484,0.0195,-0.0538,-0.0024,20.68
3110812612400,317850,-5.5119,-6.3494,-4.9089,0.0269,-0.0586,-0.0086,20.68
3110823735700,317861,-5.4855,-6.3864,-4.9161,0.0391,-0.0586,-0.0134,20.69
3110834965700,317873,-5.4544,-6.3709,-4.9292,0.0428,-0.0550,-0.0098,20.69
3110846585100,317884,-5.4102,-6.3314,-4.9615,0.0330,-0.0525,-0.0037,20.72
3110857658300,317895,-5.3958,-6.3278,-5.0106,0.0342,-0.0501,-0.0049,20.72
3110868749700,317906,-5.3839,-6.3936,-5.0201,0.0428,-0.0513,-0.0073,20.68
3110879799100,317918,-5.3587,-6.4463,-5.0477,0.0415,-0.0696,-0.0049,20.73
3110891636100,317929,-5.3695,-6.4176,-5.0273,0.0428,-0.0806,-0.0012,20.73
3110902683700,317940,-5.3719,-6.4080,-5.0201,0.0501,-0.0904,-0.0049,20.73
3110913837400,317952,-5.4054,-6.4259,-4.9866,0.0538,-0.0941,-0.0110,20.73
3110925536600,317963,-5.4413,-6.4187,-4.9543,0.0391,-0.0916,-0.0122,20.70
3110936652100,317974,-5.4532,-6.3601,-4.9519,0.0293,-0.0819,-0.0122,20.70
3110947721300,317985,-5.4485,-6.4092,-4.9819,0.0354,-0.0721,-0.0159,20.75
3110958811300,317997,-5.4437,-6.4678,-4.9603,0.0391,-0.0672,-0.0171,20.75
3110970626700,318008,-5.4425,-6.4546,-4.9328,0.0208,-0.0684,-0.0098,20.71
3110981683100,318019,-5.4245,-6.4295,-4.9795,0.0208,-0.0733,-0.0147,20.66
3110992756300,318031,-5.4066,-6.4140,-5.0106,0.0183,-0.0782,-0.0220,20.66
3111004540600,318043,-5.3982,-6.4211,-5.0058,0.0195,-0.0867,-0.0281,20.72
3111015511000,318054,-5.4066,-6.4427,-4.9831,0.0183,-0.0904,-0.0281,20.72
3111026579500,318065,-5.3803,-6.3912,-4.9831,0.0159,-0.0892,-0.0232,20.70
3111037467700,318076,-5.3815,-6.4140,-4.9831,0.0134,-0.0855,-0.0244,20.70
3111049329100,318088,-5.3779,-6.4558,-4.9543,0.0110,-0.0855,-0.0147,20.72
3111060483800,318099,-5.3958,-6.4271,-4.9256,-0.0293,-0.0782,-0.0049,20.72
3111071575400,318110,-5.3946,-6.3589,-4.9388,-0.0452,-0.0696,0.0024,20.72
3111083517300,318121,-5.3922,-6.3374,-5.0321,-0.0440,-0.0709,0.0012,20.71
3111094642100,318133,-5.3755,-6.3553,-5.0393,-0.0391,-0.0855,-0.0073,20.71
3111105743400,318144,-5.3611,-6.3685,-5.0560,-0.0293,-0.0990,-0.0098,20.70
3111117380500,318155,-5.3420,-6.3781,-5.0512,-0.0159,-0.1100,-0.0098,20.70
3111128514700,318167,-5.4066,-6.4295,-5.0034,-0.0122,-0.1185,-0.0012,20.68
3111139571600,318178,-5.5418,-6.4331,-4.9196,-0.0232,-0.1136,0.0305,20.73
3111150444500,318189,-5.5143,-6.4080,-4.9735,-0.0391,-0.1100,0.0367,20.73
3111162304000,318200,-5.5896,-6.4271,-4.9555,-0.0586,-0.1063,0.0330,20.69
3111173332300,318212,-5.6100,-6.3972,-4.9639,-0.0770,-0.1063,0.0293,20.69
3111184578900,318223,-5.6052,-6.3039,-4.9460,-0.0880,-0.1026,0.0269,20.70
3111196345100,318234,-5.5346,-6.2369,-4.9567,-0.0843,-0.1038,0.0220,20.70
3111207366800,318245,-5.5059,-6.1759,-4.9950,-0.0574,-0.1148,0.0134,20.72
3111218390700,318257,-5.4927,-6.3039,-4.9041,-0.0281,-0.1307,0.0086,20.72
3111229367400,318268,-5.4784,-6.3900,-4.8503,0.0134,-0.1539,0.0305,20.70
3111241363200,318279,-5.4568,-6.3817,-4.8120,-0.0049,-0.1478,0.0464,20.72
3111252309300,318290,-5.4174,-6.3111,-4.8383,-0.0501,-0.1332,0.0574,20.72
3111263394800,318302,-5.3719,-6.3087,-4.9208,-0.0904,-0.1173,0.0586,20.72
3111275199400,318313,-5.3492,-6.3601,-5.0441,-0.1087,-0.1148,0.0648,20.72
3111286271400,318324,-5.3192,-6.3972,-5.0955,-0.1161,-0.1283,0.0770,20.74
3111297365500,318336,-5.3360,-6.4104,-5.1326,-0.0965,-0.1576,0.0929,20.74
3111309229100,318347,-5.4748,-6.2919,-5.0357,-0.0721,-0.1955,0.1185,20.76
3111320270800,318358,-5.4796,-6.1735,-4.9460,-0.1210,-0.2016,0.1319,20.73
3111331614600,318369,-5.5573,-6.1220,-4.8766,-0.1796,-0.1491,0.1588,20.73
3111342683500,318381,-5.6124,-6.1938,-4.8275,-0.2566,-0.0721,0.2150,20.72
3111354579500,318393,-5.5346,-6.1962,-4.9687,-0.3042,-0.0244,0.2834,20.72
3111365554900,318404,-5.5968,-6.1340,-5.1876,-0.3299,-0.0428,0.3189,20.74
3111376603900,318415,-5.7188,-6.0670,-5.2834,-0.3274,-0.1026,0.3054,20.74
3111388416900,318427,-5.7954,-6.0861,-5.4939,-0.2932,-0.1820,0.2688,20.74
3111399502200,318438,-5.7368,-5.8385,-5.4927,-0.2847,-0.3250,0.2260,20.71
3111410497800,318449,-5.6782,-5.5908,-5.2965,-0.2089,-0.3665,0.2040,20.71
3111422329200,318460,-5.6674,-5.6770,-5.0859,-0.1698,-0.3775,0.1796,20.71
3111433443500,318472,-5.7906,-5.7643,-4.7545,-0.1686,-0.3421,0.1759,20.71
3111444577800,318483,-5.9055,-5.9641,-4.5236,-0.1845,-0.2529,0.2101,20.72
3111456349500,318494,-6.0754,-6.2429,-4.4770,-0.2908,-0.1381,0.2920,20.72
3111467362900,318505,-6.1723,-6.0538,-4.6780,-0.4728,-0.0367,0.3958,20.70
3111478323600,318517,-6.1519,-5.1805,-5.5370,-0.6573,0.0098,0.4691,20.70
3111489568800,318528,-6.3793,-5.2235,-5.8481,-0.8332,-0.0195,0.4716,20.71
3111501204900,318539,-6.0634,-4.9232,-5.8816,-0.6597,-0.0843,0.4032,20.72
3111512317500,318551,-6.4415,-4.9268,-5.6997,-0.4508,-0.1332,0.3091,20.72
3111523309200,318562,-6.5109,-5.1027,-5.3874,-0.4056,-0.1344,0.2529,20.71
3111535211600,318573,-6.4738,-5.3312,-4.9376,-0.5046,-0.0806,0.2615,20.71
3111546307800,318584,-6.1472,-5.5561,-5.0548,-0.6390,-0.0208,0.2896,20.68
3111557409800,318596,-5.9809,-5.0249,-5.0728,-0.6109,-0.0098,0.2981,20.68
3111569324700,318607,-6.0826,-4.8311,-5.4963,-0.5901,-0.0220,0.2297,20.72
3111580432600,318618,-6.2010,-4.7844,-5.7643,-0.6231,-0.0330,0.2224,20.70
3111591451500,318629,-6.1448,-4.7940,-6.2297,-0.6402,-0.0806,0.2004,20.70
3111602454300,318641,-6.3410,-5.4126,-5.8469,-0.5082,-0.1747,0.1674,20.71
3111614450500,318652,-6.3577,-4.8826,-5.7260,0.0208,-0.2370,0.1295,20.71
3111625464500,318663,-6.5252,-5.1852,-5.6387,0.2272,-0.2834,0.0696,20.70
3111636468000,318674,-6.5073,-5.2762,-5.5346,0.4007,-0.3201,0.0281,20.70
3111648442800,318686,-6.5037,-5.3049,-5.4114,0.5131,-0.3470,-0.0110,20.72
3111659651600,318698,-6.2895,-5.1386,-5.2642,0.5901,-0.3274,-0.0403,20.72
3111670468500,318709,-6.1866,-5.0883,-5.3623,0.6915,-0.3323,-0.0464,20.72
3111682428700,318721,-6.2034,-4.9125,-5.4604,0.8992,-0.3800,-0.0684,20.71
3111693489300,318732,-6.2704,-5.0130,-5.3815,1.0348,-0.4447,-0.0929,20.71
3111704500900,318743,-6.3817,-5.0333,-5.1302,1.0653,-0.4899,-0.0855,20.71
3111716353700,318754,-6.6999,-5.6399,-4.8514,0.9957,-0.4936,-0.0305,20.71
3111727489600,318766,-6.5779,-5.3013,-4.6684,1.0592,-0.4814,0.0024,20.69
3111738585500,318777,-6.7502,-5.4879,-4.8838,1.0776,-0.4704,-0.0024,20.69
3111749604000,318788,-6.7490,-5.4150,-4.8455,1.1240,-0.4594,-0.0086,20.71
3111761379100,318799,-6.7657,-5.5346,-4.6325,1.0372,-0.4374,-0.0122,20.72
3111772447300,318811,-6.7190,-5.5837,-4.4853,0.9933,-0.3983,-0.0012,20.72
3111783509300,318822,-6.5767,-5.8744,-4.2855,0.8552,-0.3555,0.0122,20.71
3111795427700,318833,-6.5133,-6.0538,-4.1575,0.6610,-0.3079,0.0501,20.71
3111806538500,318844,-6.3051,-5.6124,-4.2162,0.5852,-0.2676,0.0892,20.70
3111817513500,318856,-6.3577,-6.0096,-4.2401,0.3787,-0.2505,0.1210,20.70
3111829264500,318867,-6.3852,-6.1208,-4.3226,0.3519,-0.2786,0.2016,20.70
3111840373900,318878,-6.3601,-5.7224,-4.2413,0.4447,-0.3091,0.2456,20.75
3111851488700,318889,-6.5025,-6.1543,-3.9159,0.2480,-0.3299,0.2981,20.75
3111862436500,318901,-6.5731,-5.8923,-3.8297,0.1772,-0.3164,0.3702,20.71
3111874387300,318912,-6.6568,-5.9175,-3.7567,0.0745,-0.2810,0.4227,20.71
3111885431900,318923,-6.7250,-5.7870,-3.7926,-0.0232,-0.2382,0.4728,20.74
3111896488300,318935,-6.8231,-5.5083,-3.8297,-0.0929,-0.2065,0.4960,20.74
3111908321900,318946,-6.9811,-5.4616,-4.0606,-0.0965,-0.1918,0.4826,20.71
3111919450600,318957,-7.1821,-5.4485,-4.0211,-0.1002,-0.2089,0.4447,20.70
3111930450800,318968,-7.3316,-5.4114,-4.0056,-0.1234,-0.2199,0.4166,20.70
3111942325900,318981,-7.4058,-5.2092,-3.9984,-0.1307,-0.2236,0.3738,20.72
3111953447200,318992,-7.4441,-5.0847,-4.0199,-0.1002,-0.2126,0.3030,20.72
3111964402300,319003,-7.4429,-4.9926,-4.1192,-0.0318,-0.2040,0.2224,20.71
3111975557600,319014,-7.3795,-4.9890,-4.2461,0.0513,-0.2162,0.1417,20.71
3111987357200,319026,-7.3735,-5.0824,-4.2102,0.1527,-0.2492,0.0733,20.71
3111998436500,319037,-7.3866,-5.1541,-4.0869,0.1955,-0.2810,0.0367,20.71
3112009388200,319048,-7.2802,-5.3755,-3.8812,0.2651,-0.2920,0.0379,20.74
3112021341500,319059,-7.3280,-5.3312,-3.7400,0.2016,-0.2724,0.0635,20.73
3112032438900,319071,-7.3017,-5.3097,-3.7125,0.1295,-0.2334,0.1002,20.73
3112043582100,319082,-7.2012,-5.2798,-3.8656,0.0806,-0.1991,0.1271,20.69
3112055432000,319093,-7.3101,-5.2726,-3.9398,0.0672,-0.1796,0.1356,20.69
3112066406700,319105,-7.3388,-5.2929,-3.9517,0.0819,-0.1796,0.1283,20.72
3112077388100,319116,-7.4034,-5.2714,-3.8931,0.0990,-0.1759,0.1148,20.72
3112088609000,319127,-7.3184,-5.2427,-3.7663,0.1087,-0.1258,0.0696,20.68
3112100500600,319138,-7.2670,-5.4520,-3.7998,0.0550,-0.1100,0.0440,20.73
3112111484500,319150,-7.2227,-5.3384,-3.9111,0.0806,-0.1185,0.0305,20.73
3112122579200,319161,-7.1163,-5.3420,-4.0211,0.1197,-0.1527,0.0037,20.69
3112134274000,319172,-7.0624,-5.3623,-4.0092,0.1784,-0.1955,-0.0232,20.69
3112145355600,319183,-7.0672,-5.4437,-3.8800,0.2236,-0.2236,-0.0379,20.73
3112156470200,319195,-7.0780,-5.5382,-3.7208,0.2150,-0.2211,-0.0305,20.73
3112167405000,319206,-7.0828,-5.5107,-3.5354,0.1649,-0.1991,-0.0037,20.75
3112179410500,319217,-7.1605,-5.6028,-3.5055,-0.0073,-0.1393,0.0660,20.73
3112190432400,319228,-7.2275,-5.4736,-3.5749,-0.0831,-0.1148,0.0941,20.73
3112201545300,319240,-7.3149,-5.3862,-3.7687,-0.1038,-0.1087,0.0941,20.69
3112213323800,319251,-7.4034,-5.3396,-3.8572,-0.0880,-0.1185,0.0806,20.69
3112224540000,319262,-7.4297,-5.3228,-3.8596,-0.0696,-0.1381,0.0696,20.73
3112235505000,319273,-7.4321,-5.2881,-3.8907,-0.0501,-0.1613,0.0611,20.73
3112247321200,319285,-7.4130,-5.3192,-3.9338,-0.0550,-0.1918,0.0599,20.75
3112258557100,319296,-7.4070,-5.1805,-3.5174,-0.0195,-0.2236,0.0586,20.75
3112269518400,319307,-7.4333,-5.2606,-3.4217,0.0550,-0.2040,0.0330,20.74
3112280592100,319319,-7.4608,-5.2929,-3.4110,0.0281,-0.1637,0.0452,20.70
3112292363100,319330,-7.5398,-5.1900,-3.4887,0.0147,-0.1222,0.0611,20.70
3112303486200,319341,-7.5697,-5.1601,-3.6096,-0.0098,-0.0929,0.0672,20.71
3112314585200,319352,-7.6056,-5.1194,-3.6407,-0.0134,-0.0721,0.0599,20.71
3112325619000,319364,-7.6762,-5.1553,-3.6407,0.0024,-0.0538,0.0452,20.73
3112337361400,319375,-7.6989,-5.1374,-3.6371,0.0049,-0.0354,0.0354,20.73
3112348503500,319386,-7.6977,-5.1099,-3.6646,0.0073,-0.0244,-0.0012,20.70
3112359484800,319398,-7.6642,-5.1206,-3.6826,0.0000,0.0110,-0.0171,20.71
3112371481800,319409,-7.5936,-5.1350,-3.7352,0.0049,0.0220,-0.0305,20.71
3112382389700,319420,-7.5230,-5.1302,-3.8273,-0.0024,0.0195,-0.0452,20.75
3112393400000,319432,-7.4644,-5.1446,-3.8728,0.0024,0.0171,-0.0574,20.75
3112404571500,319443,-7.4405,-5.1709,-3.8560,0.0305,0.0195,-0.0635,20.71
3112416360400,319455,-7.4237,-5.2690,-3.7340,0.0452,0.0232,-0.0574,20.71
3112427550900,319466,-7.3555,-5.3109,-3.6849,0.0403,0.0208,-0.0476,20.74
3112438550100,319477,-7.3125,-5.2032,-3.7711,-0.0269,0.0134,-0.0452,20.74
3112450428500,319489,-7.3376,-5.2199,-3.7711,-0.0379,0.0159,-0.0476,20.75
3112461562300,319500,-7.3555,-5.2475,-3.7627,-0.0147,0.0171,-0.0415,20.73
3112472417000,319511,-7.3902,-5.2654,-3.7053,0.0024,0.0134,-0.0305,20.73
3112483561300,319522,-7.3759,-5.2487,-3.6048,-0.0159,0.0134,-0.0195,20.76
3112495477500,319534,-7.3675,-5.2199,-3.5773,-0.0635,0.0183,-0.0183,20.76
3112506493700,319545,-7.3807,-5.1781,-3.6730,-0.1026,0.0220,-0.0257,20.71
3112517620400,319556,-7.3902,-5.1829,-3.8512,-0.0990,0.0257,-0.0318,20.71
3112529395500,319567,-7.3065,-5.1123,-3.8883,0.0183,0.0000,-0.0464,20.75
3112540529000,319579,-7.2574,-5.2546,-3.8632,0.0538,-0.0342,-0.0660,20.71
3112551475600,319590,-7.2634,-5.2857,-3.7448,0.0513,-0.0586,-0.0696,20.71
3112562637200,319601,-7.2873,-5.2283,-3.6754,0.0257,-0.0599,-0.0635,20.72
3112574510400,319612,-7.2766,-5.1482,-3.7364,0.0159,-0.0476,-0.0599,20.72
3112585435400,319624,-7.2443,-5.1912,-3.8477,0.0257,-0.0415,-0.0574,20.71
3112596530600,319635,-7.2239,-5.2379,-3.8369,0.0269,-0.0476,-0.0489,20.71
3112608416200,319646,-7.3448,-5.2152,-3.8560,0.0061,-0.0513,-0.0403,20.72
3112619476800,319657,-7.4010,-5.1446,-3.9278,-0.0257,-0.0342,-0.0342,20.73
3112630527600,319669,-7.3866,-5.2080,-3.9852,-0.0049,-0.0391,-0.0464,20.73
3112642382900,319680,-7.3531,-5.2774,-3.9434,0.0159,-0.0538,-0.0550,20.70
3112653416500,319691,-7.2861,-5.2738,-3.8991,0.0037,-0.0660,-0.0550,20.70
3112664838600,319703,-7.2359,-5.2307,-3.8812,-0.0171,-0.0696,-0.0562,20.73
3112675632600,319714,-7.1821,-5.2618,-3.9159,-0.0318,-0.0684,-0.0574,20.73
3112687521800,319725,-7.1868,-5.3408,-3.9182,-0.0428,-0.0696,-0.0489,20.74
3112698621300,319736,-7.2718,-5.2451,-3.8692,-0.0440,-0.0770,-0.0293,20.74
3112709547300,319748,-7.2969,-5.1840,-3.8991,-0.0464,-0.0794,-0.0305,20.74
3112721725200,319759,-7.3005,-5.1733,-3.9290,-0.0476,-0.0794,-0.0342,20.71
3112744903300,319770,-7.3388,-5.1852,-3.9218,-0.0428,-0.0819,-0.0354,20.71
3112746254600,319781,-7.3519,-5.1673,-3.8788,-0.0391,-0.0806,-0.0342,20.69
3112755209400,319793,-7.3328,-5.1458,-3.8524,-0.0379,-0.0806,-0.0330,20.69
3112766268400,319804,-7.3412,-5.1577,-3.8548,-0.0330,-0.0843,-0.0379,20.76
3112777274900,319816,-7.3651,-5.2044,-3.8166,-0.0293,-0.0892,-0.0415,20.76
3112789179000,319827,-7.4189,-5.1386,-3.7831,-0.0415,-0.0757,-0.0318,20.73
3112800252000,319839,-7.4273,-5.1171,-3.7938,-0.0428,-0.0623,-0.0330,20.71
3112811324300,319850,-7.4010,-5.1171,-3.8740,-0.0293,-0.0586,-0.0391,20.71
3112822335300,319861,-7.4046,-5.0871,-3.8895,-0.0147,-0.0586,-0.0415,20.72
3112834426600,319873,-7.3795,-5.0752,-3.8692,0.0037,-0.0635,-0.0415,20.72
3112845450800,319884,-7.3890,-5.1230,-3.8584,0.0269,-0.0709,-0.0415,20.70
3112856737700,319895,-7.3795,-5.1410,-3.8142,0.0257,-0.0770,-0.0391,20.70
3112868383500,319906,-7.3591,-5.1529,-3.8249,0.0086,-0.0745,-0.0354,20.70
3112879529100,319918,-7.3579,-5.2140,-3.8560,0.0342,-0.0611,-0.0367,20.72
3112890978400,319929,-7.3448,-5.1769,-3.8333,0.0513,-0.0562,-0.0330,20.72
3112901795800,319940,-7.3484,-5.1805,-3.8142,0.0525,-0.0513,-0.0330,20.71
3112913503800,319951,-7.3484,-5.1769,-3.8453,0.0550,-0.0476,-0.0391,20.71
3112924740200,319963,-7.3184,-5.2128,-3.8548,0.0550,-0.0501,-0.0476,20.71
3112935683800,319974,-7.2945,-5.2319,-3.8512,0.0525,-0.0550,-0.0489,20.71
3112947383400,319985,-7.2706,-5.2175,-3.8465,0.0452,-0.0611,-0.0440,20.75
3112958756900,319996,-7.3220,-5.2331,-3.8716,0.0660,-0.0623,-0.0305,20.75
3112969708200,320008,-7.3711,-5.2499,-3.8106,0.0770,-0.0586,-0.0195,20.70
3112981427700,320019,-7.4417,-5.1984,-3.7412,0.0696,-0.0476,-0.0098,20.75
3112992633000,320030,-7.4321,-5.1374,-3.7615,0.0464,-0.0379,-0.0086,20.75
3113003712300,320041,-7.4357,-5.1182,-3.8536,0.0232,-0.0330,-0.0220,20.68
3113014785600,320053,-7.4106,-5.1733,-3.9123,0.0281,-0.0354,-0.0415,20.68
3113026521200,320064,-7.3843,-5.2283,-3.8943,0.0476,-0.0415,-0.0513,20.73
3113037712800,320075,-7.2957,-5.2140,-3.8381,0.0464,-0.0501,-0.0489,20.73
3113048944800,320087,-7.2455,-5.2558,-3.8967,0.0257,-0.0648,-0.0501,20.75
3113060480300,320098,-7.2658,-5.2881,-3.8943,0.0452,-0.0745,-0.0489,20.69
3113071711800,320109,-7.2395,-5.2738,-3.8273,0.0574,-0.0819,-0.0403,20.69
3113082637300,320120,-7.2634,-5.2678,-3.7807,0.0513,-0.0843,-0.0318,20.73
3113093801300,320132,-7.3220,-5.2128,-3.7555,0.0281,-0.0770,-0.0244,20.73
3113105636100,320143,-7.3005,-5.1805,-3.7842,0.0024,-0.0648,-0.0208,20.70
3113116687400,320154,-7.2814,-5.1960,-3.8489,0.0073,-0.0611,-0.0281,20.70
3113127873300,320165,-7.2682,-5.2056,-3.8094,0.0147,-0.0672,-0.0354,20.72
3113139457900,320177,-7.2706,-5.1745,-3.8273,0.0257,-0.0721,-0.0342,20.71
3113150690200,320189,-7.2706,-5.1972,-3.8847,0.0452,-0.0794,-0.0342,20.71
3113161645800,320200,-7.2610,-5.2618,-3.8895,0.0538,-0.0953,-0.0305,20.73
3113172968000,320211,-7.2838,-5.3109,-3.8142,0.0440,-0.1051,-0.0171,20.73
3113184615000,320223,-7.3519,-5.2702,-3.7591,0.0159,-0.1038,-0.0024,20.76
3113195535600,320234,-7.4058,-5.2331,-3.7424,-0.0195,-0.0892,0.0049,20.76
3113206906500,320245,-7.4405,-5.2164,-3.7878,-0.0452,-0.0721,0.0000,20.71
3113218308900,320257,-7.4345,-5.0991,-3.8058,-0.0635,-0.0452,0.0073,20.71
3113229443700,320268,-7.4094,-5.0859,-3.8512,-0.0648,0.0037,0.0073,20.76
3113240769800,320279,-7.3783,-5.0871,-3.8261,-0.0672,0.0171,0.0110,20.74
3113251751800,320290,-7.3651,-5.1446,-3.7711,-0.0941,0.0318,0.0208,20.74
3113263585900,320302,-7.4225,-5.1709,-3.7292,-0.1429,0.0611,0.0403,20.72
3113274704200,320313,-7.3998,-5.1553,-3.7448,-0.2065,0.0977,0.0648,20.72
3113285816700,320324,-7.4489,-5.1230,-3.8166,-0.2651,0.1344,0.0867,20.72
3113297388500,320335,-7.3508,-5.0477,-3.8692,-0.3103,0.1710,0.0990,20.72
3113308655600,320347,-7.2802,-5.0632,-4.0534,-0.3983,0.1869,0.0990,20.75
3113319855400,320358,-7.2778,-4.9974,-4.2174,-0.3726,0.1600,0.0880,20.73
3113331109900,320369,-7.3017,-4.9448,-4.4423,-0.2602,0.1136,0.0611,20.73
3113342568900,320380,-7.2993,-5.0082,-4.3537,-0.1918,0.0770,0.0440,20.71
3113353647000,320392,-7.3902,-5.0524,-4.1109,-0.1820,0.0745,0.0550,20.71
3113364856400,320403,-7.3747,-5.0979,-3.9733,-0.1820,0.0904,0.0794,20.75
3113376474500,320414,-7.4178,-5.0836,-3.9254,-0.1784,0.1161,0.0990,20.75
3113387609000,320425,-7.4058,-4.6696,-4.2568,-0.1796,0.1258,0.0965,20.74
3113398410000,320437,-7.3938,-4.7641,-4.4554,-0.0990,0.0611,0.0171,20.75
3113409610300,320448,-7.3232,-4.7569,-4.5284,0.0122,0.0086,-0.0379,20.75
3113421553000,320459,-7.2658,-4.9256,-4.4554,0.1112,-0.0440,-0.0794,20.74
3113432590600,320471,-7.2538,-5.0955,-4.2951,0.1686,-0.0843,-0.0953,20.74
3113443746600,320482,-7.2275,-5.0512,-4.1515,0.1906,-0.1075,-0.0916,20.73
3113455444700,320493,-7.2311,-5.0261,-4.0869,0.1869,-0.1124,-0.0965,20.73
3113466633000,320504,-7.2108,-5.0309,-4.1204,0.1833,-0.1112,-0.1112,20.74
3113477822600,320516,-7.1892,-5.0824,-4.2174,0.1735,-0.1087,-0.1234,20.74
3113488804000,320527,-7.1533,-5.0716,-4.2126,0.1686,-0.1210,-0.1197,20.70
3113500628400,320538,-7.1438,-5.1039,-4.1527,0.1552,-0.1344,-0.1148,20.75
3113511775000,320549,-7.1402,-5.1015,-4.0881,0.1417,-0.1429,-0.1063,20.75
3113522710400,320561,-7.2108,-5.1326,-4.0152,0.1161,-0.1405,-0.0941,20.71
3113534523800,320572,-7.2574,-5.1254,-3.9960,0.0819,-0.1246,-0.0745,20.71
3113545528700,320583,-7.2694,-5.0931,-4.0367,0.0391,-0.1038,-0.0611,20.74
3113560872900,320594,-7.2622,-5.0345,-4.0977,0.0110,-0.0904,-0.0611,20.74
3113568349000,320606,-7.2550,-5.0524,-4.2257,0.0122,-0.1173,-0.0867,20.78
3113579623100,320617,-7.1821,-5.0704,-4.1551,0.0440,-0.1332,-0.0916,20.74
3113590825000,320628,-7.1091,-5.1039,-4.0666,0.0354,-0.1356,-0.0855,20.74
3113601693700,320640,-7.0313,-5.1709,-4.0570,0.0098,-0.1405,-0.0721,20.70
3113613413500,320651,-7.0409,-5.2068,-4.0331,-0.0476,-0.1381,-0.0464,20.70
3113624964700,320663,-7.0684,-5.1410,-4.0439,-0.0831,-0.1307,-0.0122,20.75
3113635749500,320674,-7.1067,-5.1541,-4.1587,-0.0806,-0.1381,0.0037,20.75
3113647533900,320686,-7.1426,-5.2152,-4.3430,-0.0672,-0.1698,0.0098,20.74
3113658526300,320697,-7.0840,-5.0381,-4.0510,-0.0098,-0.2688,0.0330,20.76
3113669598400,320708,-7.0505,-5.0501,-3.8548,-0.0147,-0.2700,0.0452,20.76
3113680690200,320719,-7.0660,-5.0369,-3.8381,-0.0513,-0.2505,0.0672,20.75
3113692386300,320731,-7.1450,-4.9914,-3.9194,-0.0782,-0.2407,0.0831,20.75
3113703473800,320742,-7.1844,-5.0524,-3.9410,-0.0611,-0.2443,0.0892,20.74
3113714571100,320753,-7.1222,-5.2032,-4.0690,-0.0440,-0.2566,0.1038,20.74
3113726491600,320764,-7.1450,-5.1733,-4.1025,-0.0538,-0.2798,0.1381,20.73
3113737567000,320776,-7.2108,-4.9771,-4.1408,-0.0672,-0.3067,0.1674,20.73
3113748711300,320787,-7.2419,-5.0034,-4.0487,-0.0208,-0.3580,0.1881,20.75
3113760360300,320798,-7.3173,-4.9448,-3.8919,0.0147,-0.3690,0.2077,20.73
3113771622900,320809,-7.4429,-5.1003,-3.7795,0.0171,-0.3629,0.2285,20.73
3113782832800,320821,-7.5864,-5.1290,-3.7101,0.0110,-0.3396,0.2712,20.77
3113793784800,320832,-7.7013,-5.0441,-3.6885,-0.0037,-0.2944,0.3360,20.77
3113805621700,320843,-7.7695,-4.8299,-3.7065,-0.0232,-0.2456,0.4007,20.74
3113817002800,320855,-7.8520,-4.5523,-3.7364,-0.0440,-0.2065,0.4386,20.74
3113827598900,320866,-8.0865,-4.4112,-3.9506,-0.0464,-0.1417,0.4545,20.76
3113839551100,320877,-8.1512,-4.2090,-3.9900,-0.0232,-0.1332,0.4472,20.78
3113850964000,320888,-8.2158,-4.0558,-3.8668,0.0257,-0.1319,0.4288,20.78
3113861584800,320900,-8.3342,-3.9829,-3.7531,0.0733,-0.1258,0.4313,20.72
3113873517900,320911,-8.4790,-3.7854,-3.6574,0.0745,-0.1100,0.4862,20.72
3113885018900,320922,-8.7673,-3.3416,-3.7448,0.0745,-0.0757,0.5815,20.73
3113895598100,320933,-9.1047,-3.0245,-3.7866,0.1173,-0.0122,0.6768,20.73
3113906731000,320945,-9.3344,-2.9659,-4.2676,0.2431,0.0660,0.7440,20.78
3113918476300,320956,-9.3009,-2.8857,-4.0522,0.5559,0.1820,0.7624,20.73
3113929615400,320967,-9.1334,-2.9695,-4.1719,0.7343,0.2089,0.6952,20.73
3113941109800,320978,-8.9228,-3.0185,-4.3621,0.9163,0.1845,0.5852,20.78
3113952441000,320990,-8.6704,-3.4062,-4.3095,1.0959,0.1112,0.4557,20.78
3113963662200,321001,-8.4586,-4.0056,-3.7819,1.2633,0.0354,0.3592,20.77
3113974736900,321012,-7.8616,-4.7928,-2.9372,1.3439,0.0098,0.3482,20.77
3113985815700,321024,-7.5374,-5.4796,-2.3976,1.3732,0.0806,0.4569,20.75
3113997637100,321035,-7.1809,-5.1697,-2.4718,1.2498,0.1943,0.6536,20.75
3114008702200,321046,-7.2921,-5.0213,-3.0317,0.6170,0.3421,0.8186,20.77
3114019842600,321058,-7.5506,-4.8048,-3.5952,0.4753,0.3005,0.7514,20.76
3114031561600,321070,-7.8425,-4.6385,-3.6550,0.4142,0.2089,0.6243,20.76
3114042540000,321081,-7.9717,-4.4925,-3.4744,0.3983,0.1222,0.4777,20.73
3114053789400,321092,-8.0770,-4.4698,-3.3141,0.3519,0.0757,0.3506,20.73
3114064640800,321103,-8.0650,-4.4506,-3.2255,0.2798,0.0709,0.2602,20.80
3114076519700,321115,-8.0626,-4.2832,-3.2148,0.2456,0.0831,0.1857,20.80
3114087681200,321126,-8.0267,-4.0690,-3.1693,0.2236,0.0916,0.0195,20.77
3114098762300,321137,-8.1200,-4.0929,-3.3176,0.1833,0.1246,-0.0538,20.75
3114110448000,321148,-7.9860,-4.1133,-3.5605,0.1759,0.1332,-0.1026,20.75
3114121685100,321160,-7.7527,-4.1480,-3.6227,0.2236,0.1307,-0.1417,20.73
3114132697700,321171,-7.5912,-4.5033,-3.7005,0.2517,0.1063,-0.1796,20.73
3114143741800,321182,-7.3352,-4.8203,-3.7017,0.2248,0.0672,-0.1955,20.73
3114155737000,321193,-7.1115,-5.0249,-3.6000,0.1735,0.0269,-0.1930,20.73
3114166605300,321205,-6.7729,-5.2235,-3.6168,0.1319,-0.0183,-0.1723,20.75
3114177599700,321216,-6.4726,-5.2714,-4.0164,-0.0684,-0.1442,-0.0745,20.75
3114189473200,321227,-6.4295,-5.2403,-4.0905,-0.1063,-0.2126,-0.0318,20.75
3114200664300,321239,-6.5204,-5.2032,-4.0116,-0.0611,-0.2688,0.0061,20.73
3114211685200,321250,-6.7346,-5.2032,-3.8955,-0.0489,-0.3128,0.0403,20.73
3114223324800,321261,-7.0337,-5.1805,-3.7938,-0.0965,-0.3506,0.0623,20.77
3114234652100,321272,-7.3304,-5.0393,-3.7831,-0.1344,-0.3775,0.0452,20.77
3114245631400,321284,-7.6977,-5.0812,-3.8656,-0.1710,-0.3897,-0.0110,20.73
3114256790500,321295,-8.0961,-5.5920,-4.0499,-0.1564,-0.3995,-0.0904,20.73
3114268987100,321306,-8.4168,-5.5334,-3.6909,-0.1698,-0.4313,-0.1515,20.73
3114279433100,321317,-8.2540,-5.5155,-3.4361,-0.2871,-0.4313,-0.1527,20.72
3114290900200,321329,-8.0590,-5.3192,-3.4098,-0.4349,-0.4056,-0.1637,20.72
3114302742300,321340,-7.8760,-4.9161,-3.4337,-0.5510,-0.3567,-0.1967,20.73
3114313628600,321351,-7.8102,-4.6038,-3.5067,-0.6121,-0.3189,-0.2443,20.73
3114324966900,321362,-7.5996,-4.3155,-3.6730,-0.6768,-0.3201,-0.2871,20.77
3114336931700,321375,-7.3639,-4.1288,-3.8979,-0.7013,-0.3445,-0.3140,20.77
3114347619500,321386,-7.4560,-4.3657,-3.8967,-0.6952,-0.5058,-0.2822,20.79
3114358918500,321397,-7.9083,-4.3442,-3.5366,-0.6512,-0.5644,-0.1857,20.75
3114370999800,321409,-8.5663,-4.2197,-3.0915,-0.6439,-0.5644,-0.0672,20.75
3114381686800,321420,-8.9288,-3.9661,-2.8068,-0.6341,-0.5046,0.0403,20.75
3114392616900,321431,-9.2423,-3.6658,-2.9025,-0.6194,-0.3983,0.1075,20.75
3114404992900,321442,-9.4205,-3.1011,-2.9396,-0.5864,-0.2896,0.1063,20.80
3114415528500,321454,-9.2937,-2.9958,-3.1980,-0.5290,-0.2248,0.0305,20.80
3114426545600,321465,-9.1681,-2.9192,-3.4911,-0.4838,-0.2199,-0.0684,20.75
3114438480400,321476,-8.9731,-2.8869,-3.2758,-0.3641,-0.2749,-0.2590,20.78
3114449732300,321487,-8.8235,-2.8762,-3.0437,-0.3262,-0.2810,-0.2749,20.78
3114460850600,321499,-8.6847,-2.8235,-2.8475,-0.2847,-0.2443,-0.2236,20.76
3114472494200,321510,-8.7338,-2.7709,-2.7697,-0.2224,-0.1967,-0.1258,20.76
3114483603400,321521,-8.8415,-2.8068,-2.6453,-0.2040,-0.1600,-0.0086,20.73
3114495156700,321532,-9.0640,-2.6405,-2.5675,-0.2370,-0.1100,0.1234,20.73
3114508869800,321544,-9.3476,-2.2839,-2.6249,-0.2676,-0.0525,0.2321,20.78
3114517391400,321555,-9.7460,-1.9609,-3.0078,-0.2407,-0.0244,0.2248,20.78
3114528435600,321566,-9.8273,-1.9322,-3.0939,-0.0501,-0.0452,0.1588,20.77
3114539889800,321577,-9.7675,-1.8987,-3.0652,0.0929,-0.0550,0.0819,20.80
3114551472300,321589,-9.6335,-2.1763,-2.9767,0.2370,-0.0428,0.0049,20.80
3114562519100,321600,-9.4863,-2.4323,-2.8104,0.3519,-0.0183,-0.0464,20.76
3114573531800,321611,-9.2794,-2.6405,-2.7410,0.4056,0.0318,-0.0733,20.76
3114585410600,321623,-9.0066,-2.8427,-2.8522,0.4472,0.0953,-0.0794,20.77
3114596393500,321635,-8.6644,-3.0485,-3.0329,0.5021,0.1344,-0.0831,20.77
3114607535300,321646,-8.0590,-3.5366,-3.2471,0.6011,0.1271,-0.0733,20.76
3114618545100,321657,-7.9023,-3.8357,-3.2100,0.6377,0.0855,-0.0489,20.77
3114630215300,321669,-7.8293,-3.9793,-3.1107,0.6231,0.0330,-0.0110,20.77
3114641438300,321680,-7.8676,-3.9817,-3.0114,0.5644,0.0000,0.0232,20.80
3114652552400,321691,-7.9621,-4.1013,-3.0640,0.5205,-0.0086,0.0440,20.80
3114663589300,321702,-8.0614,-4.2138,-3.1848,0.4997,-0.0195,0.0586,20.75
3114675363900,321714,-8.0913,-4.0343,-3.1753,0.4862,-0.0379,0.0696,20.75
3114686439000,321725,-8.0901,-3.7507,-3.2877,0.4630,-0.0501,0.0513,20.77
3114697599300,321736,-8.0770,-4.3525,-3.4899,0.4850,-0.0770,-0.0293,20.76
3114709286700,321747,-8.2768,-4.6505,-3.3966,0.5302,-0.1051,-0.0086,20.76
3114720417800,321759,-8.4359,-4.7318,-3.1023,0.5229,-0.1271,0.0195,20.77
3114731480400,321770,-8.6405,-4.7617,-2.8199,0.4826,-0.1014,0.0232,20.77
3114742490700,321781,-8.5890,-4.6516,-2.7398,0.3897,-0.0513,0.0024,20.77
3114754422200,321793,-8.5519,-4.6325,-3.0006,0.3054,-0.0159,-0.0501,20.77
3114765349700,321804,-8.5125,-4.6732,-3.2865,0.2920,-0.0073,-0.1393,20.79
3114776771600,321815,-8.2181,-4.5978,-3.3308,0.3091,-0.0244,-0.2346,20.79
3114788493100,321826,-8.0016,-4.6457,-3.1502,0.3250,-0.0513,-0.3910,20.79
3114799632300,321838,-7.7791,-4.6971,-3.0712,0.2969,-0.0391,-0.4019,20.80
3114810546900,321849,-7.6774,-4.6624,-3.1825,0.2431,-0.0281,-0.3567,20.80
3114822332300,321860,-7.6379,-4.6792,-3.2471,0.2248,-0.0330,-0.2896,20.76
3114833447500,321871,-7.7324,-4.5751,-3.2590,0.2065,-0.0367,-0.2089,20.76
3114844876600,321883,-7.8736,-4.6205,-3.3188,0.1906,-0.0232,-0.1319,20.76
3114855692700,321894,-7.9837,-4.6648,-3.3200,0.1759,-0.0098,-0.0550,20.76
3114867633400,321905,-8.2134,-4.6552,-3.0939,0.1784,-0.0061,-0.0037,20.77
3114878385900,321916,-8.2840,-4.4518,-3.0820,0.0586,0.0037,-0.0037,20.84
3114889551200,321928,-8.2935,-4.2903,-3.1047,-0.0037,0.0000,-0.0293,20.84
3114901203200,321939,-8.3007,-4.3370,-3.2542,0.0476,-0.0147,-0.0770,20.80
3114912353300,321950,-8.3055,-4.3155,-3.3129,0.1246,-0.0367,-0.1038,20.80
3114923564900,321961,-8.2397,-4.3310,-3.2303,0.2089,-0.0611,-0.1197,20.82
3114934617000,321973,-8.1165,-4.4650,-3.1322,0.2786,-0.0782,-0.1258,20.82
3114946357700,321984,-8.0698,-4.5452,-2.9288,0.2798,-0.0819,-0.1161,20.77
3114957497700,321995,-7.9944,-4.7079,-2.8977,0.1943,-0.0098,-0.0941,20.82
3114968600900,322007,-7.8473,-4.6361,-3.0006,0.1393,0.0147,-0.0867,20.82
3114980202100,322018,-7.7097,-4.6887,-3.2841,0.1295,-0.0012,-0.0892,20.79
3114991456000,322029,-7.5960,-4.7868,-3.4887,0.1588,-0.0648,-0.0916,20.79
3115002530700,322040,-7.5362,-4.9292,-3.4828,0.1796,-0.1698,-0.0929,20.80
3115013569900,322052,-7.6415,-5.0883,-3.2148,0.1747,-0.2541,-0.0843,20.80
3115025523100,322063,-7.7827,-5.1218,-3.0532,0.1014,-0.2810,-0.0525,20.78
3115036755200,322074,-7.9286,-5.1840,-2.9204,0.0574,-0.2615,-0.0367,20.78
3115047577900,322085,-7.7348,-5.0680,-3.0604,-0.0195,-0.2224,-0.0257,20.84
3115059411500,322098,-7.7121,-4.8526,-3.0544,-0.0672,-0.2517,-0.0147,20.80
3115070485200,322109,-7.8832,-4.8383,-3.0293,-0.0599,-0.2883,-0.0098,20.80
3115081508400,322120,-8.1846,-4.8203,-2.8857,-0.0623,-0.3152,0.0159,20.79
3115093541000,322131,-8.4514,-4.5212,-2.6094,-0.1161,-0.3018,0.0648,20.79
3115104513900,322143,-8.8116,-4.2999,-2.4790,-0.1723,-0.2382,0.1026,20.78
3115115664700,322154,-8.9946,-4.1336,-2.5591,-0.1588,-0.1613,0.0977,20.78
3115127435200,322165,-8.8642,-4.0690,-2.8104,-0.1417,-0.1136,-0.0110,20.80
3115138346500,322177,-8.6249,-4.1683,-2.9336,-0.0037,-0.1185,-0.0770,20.78
3115149508000,322188,-8.4682,-4.1994,-2.8259,0.0770,-0.1552,-0.1173,20.78
3115160414800,322199,-8.4287,-4.4483,-2.6309,0.1332,-0.1833,-0.1466,20.78
3115172316900,322210,-8.3366,-4.5751,-2.4347,0.1319,-0.1845,-0.1478,20.78
3115183569200,322222,-8.1990,-4.6026,-2.3210,0.0867,-0.1600,-0.1307,20.84
3115194910500,322233,-8.0471,-4.7294,-2.3677,0.0843,-0.1319,-0.1185,20.84
3115206382200,322244,-7.9609,-4.8550,-2.4658,0.0794,-0.1210,-0.1014,20.79
3115217536300,322255,-8.1787,-4.8179,-2.5866,0.0134,-0.1429,-0.0586,20.77
3115228792800,322267,-8.3043,-4.6720,-2.6309,-0.0195,-0.1503,-0.0452,20.77
3115240423100,322278,-8.3761,-4.4830,-2.6560,-0.0440,-0.1466,-0.0379,20.79
3115251519600,322289,-8.3091,-4.3502,-2.7087,-0.0440,-0.1258,-0.0342,20.79
3115262543400,322300,-8.2995,-4.3908,-2.7362,-0.0171,-0.1038,-0.0330,20.79
3115273707200,322312,-8.2875,-4.4949,-2.7362,-0.0061,-0.0941,-0.0269,20.79
3115285610700,322323,-8.3246,-4.5105,-2.7314,-0.0159,-0.0819,-0.0269,20.82
3115296510900,322334,-8.1930,-4.5416,-2.8307,-0.0208,-0.0709,-0.0354,20.82
3115307712300,322345,-8.2098,-4.4973,-2.8367,-0.0098,-0.0819,-0.0415,20.79
3115319427800,322357,-8.3270,-4.4351,-2.7721,-0.0122,-0.0880,-0.0330,20.80
3115330558100,322368,-8.4120,-4.3753,-2.6979,-0.0134,-0.0757,-0.0318,20.80
3115341655700,322379,-8.3856,-4.3944,-2.7027,-0.0122,-0.0611,-0.0452,20.81
3115353463000,322391,-8.3450,-4.5009,-2.7721,0.0134,-0.0538,-0.0648,20.81
3115364575800,322403,-8.2038,-4.6038,-2.7350,0.0330,-0.0599,-0.0782,20.84
3115375674400,322414,-8.1523,-4.6457,-2.6716,0.0342,-0.0696,-0.0745,20.84
3115387093900,322425,-8.2481,-4.6337,-2.6010,0.0220,-0.0684,-0.0501,20.84
3115398534500,322437,-8.3426,-4.6576,-2.5914,0.0073,-0.0696,-0.0476,20.79
3115409701300,322448,-8.4227,-4.6241,-2.5424,0.0012,-0.0648,-0.0440,20.79
3115420886500,322459,-8.4957,-4.5942,-2.5184,-0.0073,-0.0550,-0.0476,20.79
3115432604800,322470,-8.4634,-4.5691,-2.5364,-0.0037,-0.0318,-0.0525,20.79
3115443594000,322482,-8.3462,-4.5069,-2.6070,0.0000,-0.0061,-0.0513,20.80
3115454555700,322493,-8.3175,-4.5105,-2.6871,-0.0073,0.0086,-0.0440,20.80
3115465630600,322504,-8.4000,-4.6505,-2.6919,0.0073,0.0171,-0.0367,20.80
3115477484000,322515,-8.5304,-4.8084,-2.3581,-0.0073,0.0757,-0.0232,20.80
3115488646200,322527,-8.4084,-4.8562,-2.3067,-0.0819,0.1393,-0.0159,20.80
3115499839400,322538,-8.3426,-4.5966,-2.5711,-0.1405,0.2004,0.0000,20.80
3115510776500,322549,-8.4168,-4.4997,-2.7709,-0.1625,0.2321,-0.0049,20.80
3115522533500,322561,-8.4311,-4.4758,-2.8499,-0.1515,0.2334,-0.0171,20.82
3115533676300,322572,-8.4814,-4.3334,-2.9085,-0.1454,0.2248,-0.0220,20.82
3115544744500,322583,-8.5759,-4.2532,-2.9587,-0.1381,0.2236,-0.0318,20.82
3115556483400,322594,-8.5519,-4.2437,-3.0341,-0.1136,0.2346,-0.0525,20.82
3115567767900,322606,-8.0997,-4.1803,-3.1669,-0.0562,0.2505,-0.1014,20.84
3115578866700,322617,-7.8580,-4.2401,-3.4158,-0.0086,0.2248,-0.1197,20.82
3115590423300,322628,-7.6905,-4.4255,-3.5318,0.0721,0.1625,-0.1332,20.82
3115601519300,322639,-7.5206,-4.5846,-3.4457,0.1258,0.0819,-0.1234,20.81
3115612608200,322651,-7.5829,-4.7234,-3.2626,0.1295,0.0220,-0.0977,20.81
3115623699800,322662,-7.8030,-4.8251,-3.0616,0.1234,-0.0061,-0.0635,20.78
3115635510700,322673,-8.1404,-4.9412,-2.8845,0.1100,-0.0012,-0.0330,20.78
3115646876800,322684,-8.5256,-4.7809,-2.7290,0.0794,0.0464,-0.0049,20.79
3115657794300,322696,-8.6166,-4.6564,-2.9121,-0.0220,0.1820,-0.0159,20.83
3115669533200,322707,-8.5292,-4.4830,-3.1059,-0.0550,0.2236,-0.0501,20.83
3115680717600,322718,-8.2816,-4.3777,-3.3165,-0.0611,0.2334,-0.0990,20.75
3115691592100,322729,-7.9190,-4.2927,-3.5139,-0.0415,0.2053,-0.1454,20.75
3115702754600,322741,-7.6558,-4.3490,-3.5928,-0.0147,0.1564,-0.1698,20.81
3115714600000,322752,-7.4883,-4.4506,-3.5438,0.0220,0.0977,-0.1637,20.81
3115725707900,322763,-7.5087,-4.5655,-3.4050,0.0354,0.0489,-0.1283,20.82
3115736687900,322775,-7.8257,-4.6313,-3.2542,0.0342,0.0000,-0.0354,20.82
3115748012200,322786,-8.0746,-4.5751,-3.3165,0.0183,0.0061,-0.0049,20.82
3115759557900,322797,-8.2768,-4.6600,-3.3595,0.0428,0.0159,-0.0024,20.82
3115770593500,322808,-8.3617,-4.7665,-3.3188,0.0709,0.0220,-0.0134,20.82
3115781836000,322820,-8.2863,-4.6899,-3.2758,0.0538,0.0281,-0.0220,20.83
3115793413300,322831,-8.1129,-4.6241,-3.4385,0.0342,0.0379,-0.0440,20.83
3115804610200,322842,-7.8724,-4.6445,-3.5294,0.0367,0.0183,-0.0733,20.78
3115815643800,322853,-7.7121,-4.6241,-3.3476,0.0623,-0.0208,-0.0953,20.78
3115826743600,322865,-7.5577,-4.6134,-3.1478,0.0134,-0.0635,-0.0709,20.80
3115838507600,322876,-7.7025,-4.5715,-3.2590,-0.0293,-0.0599,-0.0501,20.80
3115849707400,322887,-7.8676,-4.6576,-3.2423,-0.0330,-0.0525,-0.0391,20.80
3115860750700,322898,-8.0148,-4.7761,-3.2794,-0.0281,-0.0538,-0.0244,20.78
3115872409900,322910,-8.0734,-4.7844,-3.2124,-0.0134,-0.0562,-0.0171,20.78
3115883584000,322921,-8.1188,-4.6947,-3.1394,0.0049,-0.0476,-0.0269,20.81
3115894753500,322932,-8.0387,-4.7462,-3.1478,0.0073,-0.0354,-0.0538,20.81
3115905996400,322944,-7.8126,-4.7486,-3.2339,-0.0012,-0.0354,-0.0806,20.77
3115917638500,322955,-7.4321,-4.6481,-3.2590,-0.0330,-0.0892,-0.1100,20.83
3115928792200,322967,-7.3974,-4.6564,-3.3835,-0.0709,-0.1271,-0.0831,20.83
3115939851000,322978,-7.5302,-4.5583,-3.3440,-0.0635,-0.1710,-0.0257,20.82
3115951588400,322990,-7.8054,-4.5069,-3.2160,-0.0379,-0.2040,0.0342,20.82
3115962796500,323001,-8.0937,-4.5344,-3.0305,-0.0195,-0.2028,0.0782,20.83
3115973876100,323012,-8.3390,-4.4638,-2.8786,-0.0330,-0.1674,0.1051,20.83
3115985482600,323023,-8.4359,-4.4267,-2.8546,-0.0391,-0.1136,0.0929,20.80
3115996443700,323035,-8.4048,-4.3418,-3.1083,-0.0293,-0.0696,-0.2651,20.80
3116007704400,323046,-8.2026,-4.4160,-3.2841,-0.0073,-0.0244,-0.0660,20.80
3116018796500,323057,-7.9896,-4.4853,-3.3751,0.0183,-0.0342,-0.1014,20.81
3116030552900,323068,-7.8855,-4.5320,-3.2806,0.0354,-0.0538,-0.1075,20.81
3116041679700,323080,-7.7922,-4.4746,-3.1525,0.0440,-0.0648,-0.0880,20.82
3116052894500,323091,-7.7862,-4.5009,-3.1657,0.0293,-0.0660,-0.0648,20.82
3116064453500,323102,-7.9573,-4.6289,-3.2291,0.0330,-0.0660,-0.0428,20.79
3116075658400,323113,-8.0794,-4.6349,-3.2566,0.0476,-0.0684,-0.0232,20.79
3116086772200,323125,-8.1930,-4.6229,-3.3021,0.0489,-0.0599,-0.0391,20.83
3116097673700,323136,-8.1380,-4.6421,-3.3296,0.0782,-0.0513,-0.0672,20.82
3116109626100,323147,-8.1093,-4.7928,-3.2973,0.0953,-0.0440,-0.0941,20.82
3116120952400,323159,-8.0818,-4.8503,-3.1813,0.1002,-0.0354,-0.1038,20.84
3116131579000,323170,-7.9573,-4.8060,-3.0963,0.0721,-0.0220,-0.1014,20.84
3116143389900,323181,-7.8221,-4.6971,-3.1837,0.0305,-0.0061,-0.1002,20.80
3116154570500,323192,-7.6702,-4.6612,-3.3344,-0.0012,-0.0012,-0.1026,20.80
3116165634500,323204,-7.5422,-4.6493,-3.4887,-0.0086,-0.0195,-0.1002,20.82
3116176888100,323215,-7.4919,-4.6887,-3.4576,0.0586,-0.1038,-0.0611,20.79
3116188621100,323226,-7.6223,-4.6947,-3.3763,0.0819,-0.1552,-0.0342,20.79
3116199950200,323237,-7.8066,-4.7330,-3.2207,0.0831,-0.1820,-0.0061,20.80
3116210804600,323249,-7.9454,-4.6971,-3.1394,0.0843,-0.1796,0.0171,20.80
3116222360100,323260,-8.1727,-4.7629,-3.0963,0.0819,-0.1613,0.0281,20.80
3116233665300,323271,-8.3019,-4.7426,-3.0281,0.0550,-0.1283,0.0354,20.80
3116244695000,323282,-8.3749,-4.8287,-3.0736,0.0293,-0.0843,0.0403,20.79
3116255495700,323294,-8.0471,-4.5739,-3.0688,0.0183,-0.0586,0.0476,20.79
3116267488900,323305,-8.1978,-4.4100,-3.2279,0.0061,-0.0318,0.0171,20.77
3116278547700,323316,-8.1500,-4.5452,-3.4110,-0.0281,-0.0342,-0.0086,20.75
3116289642000,323328,-8.3246,-4.0881,-3.5163,0.0147,-0.0476,-0.0208,20.75
3116301234900,323339,-7.9095,-4.1779,-3.5809,0.2309,-0.0672,-0.0831,20.77
3116312541400,323350,-8.0507,-4.9077,-3.6670,0.3091,-0.0990,-0.1075,20.77
3116323613500,323361,-7.7707,-4.4877,-3.3009,0.4019,-0.1283,-0.0403,20.81
3116334719500,323373,-7.6499,-5.0812,-2.9683,0.4447,-0.1368,-0.0147,20.81
3116346558400,323384,-7.7755,-4.8395,-2.8953,0.3738,-0.1295,0.1381,20.79
3116357571000,323395,-7.9262,-4.8514,-2.8654,0.0562,-0.0611,0.1930,20.82
3116369018200,323406,-8.1093,-4.6720,-2.8642,-0.0183,-0.0073,0.2187,20.82
3116380421900,323418,-8.2672,-4.7402,-2.9001,-0.0367,0.0367,0.1979,20.80
3116391577300,323429,-8.2277,-4.6636,-2.9587,-0.0916,0.0733,0.1759,20.80
3116403062500,323440,-8.1858,-4.7330,-3.2662,-0.1368,0.0855,0.1466,20.84
3116413667600,323451,-8.2481,-4.7486,-3.4660,-0.1429,0.0562,0.1185,20.84
3116425595800,323464,-8.4000,-4.6911,-3.3523,-0.1417,0.0147,0.0929,20.81
3116437038900,323475,-8.6010,-4.7617,-2.8654,-0.1625,0.0476,0.0367,20.81
3116447717000,323486,-8.6501,-4.8132,-2.8953,-0.1967,0.1014,0.0269,20.78
3116459558100,323497,-8.8152,-4.8383,-2.9468,-0.2456,0.1674,0.0183,20.80
3116470967300,323509,-8.9396,-4.8550,-3.1143,-0.2883,0.2236,0.0122,20.80
3116481608800,323520,-8.8977,-4.8479,-3.2841,-0.2468,0.2456,-0.0171,20.81
3116492836000,323531,-8.8008,-4.8766,-3.4122,-0.2162,0.2407,-0.0550,20.81
3116504956800,323543,-8.7517,-4.7844,-3.4505,-0.2297,0.2272,-0.0672,20.77
3116515632600,323554,-8.6668,-4.6708,-3.1466,-0.2236,0.2321,-0.0660,20.77
3116526629100,323565,-8.2588,-4.0654,-3.2219,-0.2297,0.3433,-0.0684,20.79
3116538981600,323576,-8.1045,-3.9171,-3.4732,-0.2260,0.3958,-0.0977,20.76
3116549643600,323588,-7.9932,-3.9206,-3.6586,-0.2101,0.4178,-0.1295,20.76
3116560732800,323599,-7.7922,-3.9182,-3.6861,-0.1649,0.4203,-0.1503,20.79
3116572606700,323610,-7.4213,-3.8620,-3.7496,-0.1075,0.3983,-0.1564,20.79
3116583739700,323621,-7.0672,-4.0152,-3.9541,-0.0745,0.3457,-0.1576,20.80
3116594654400,323633,-6.9224,-4.1145,-4.1420,-0.0525,0.2566,-0.1405,20.80
3116606368600,323644,-6.5324,-3.9864,-3.9900,-0.0354,0.1478,-0.0794,20.77
3116617604300,323655,-6.4223,-3.9230,-4.0044,-0.0195,-0.0538,-0.0525,20.78
3116628707700,323666,-6.3649,-3.8548,-3.8812,-0.0086,-0.1405,-0.0195,20.78
3116639663000,323678,-6.2883,-3.8644,-3.7484,0.0073,-0.2175,0.0110,20.83
3116651585500,323689,-6.2991,-3.8309,-3.7747,-0.0122,-0.2834,0.0428,20.83
3116662636100,323700,-6.4116,-3.8034,-3.9805,-0.0232,-0.3531,0.0745,20.79
3116673652300,323712,-6.5288,-3.8022,-3.9589,0.0195,-0.4337,0.1112,20.79
3116685469500,323723,-6.6951,-3.8919,-3.7376,0.0880,-0.5156,0.1442,20.84
3116696711400,323734,-7.2694,-4.2197,-3.4277,0.1197,-0.5925,0.2260,20.84
3116707737900,323745,-7.6080,-4.4160,-3.2542,0.1515,-0.5950,0.2517,20.78
3116718541000,323757,-8.0590,-4.8574,-3.1777,0.1723,-0.5925,0.2602,20.84
3116730460700,323768,-8.5292,-5.0764,-2.9803,0.1344,-0.5730,0.2786,20.84
3116741541400,323779,-8.7529,-5.0321,-2.8965,0.0880,-0.5278,0.2920,20.80
3116752568700,323790,-9.0832,-5.0381,-3.1202,0.0379,-0.4691,0.2822,20.80
3116764360300,323802,-9.2435,-4.8479,-3.3248,-0.0122,-0.4215,0.2566,20.83
3116775547300,323814,-9.1382,-4.6959,-3.5593,-0.0110,-0.3971,0.2040,20.83
3116786729000,323825,-8.7206,-4.3980,-3.4552,0.0342,-0.4056,0.0929,20.76
3116798818400,323836,-8.3665,-4.2712,-3.3846,0.0574,-0.4178,0.0611,20.81
3116809580500,323848,-7.9047,-4.1934,-3.3045,0.0501,-0.4264,0.0586,20.81
3116820628900,323859,-7.5338,-4.1731,-3.3619,0.0623,-0.4362,0.0977,20.80
3116831570700,323870,-7.1605,-4.2879,-3.4074,0.0892,-0.4618,0.1845,20.80
3116843672000,323881,-7.1234,-4.5966,-3.3009,0.1161,-0.5082,0.3323,20.81
3116854757500,323893,-7.1665,-4.6588,-2.9850,0.0696,-0.5596,0.5351,20.81
3116865840900,323904,-7.4824,-4.1767,-2.9910,-0.0269,-0.5999,0.7440,20.82
3116877440400,323915,-7.2945,-4.4483,-2.8487,-0.0342,-0.6634,1.0104,20.78
3116888692000,323927,-7.4429,-4.5117,-2.7745,-0.0464,-0.7196,1.1264,20.78
3116899803200,323938,-7.2682,-4.4207,-2.6620,-0.0929,-0.7868,1.2645,20.83
3116911976100,323949,-7.6965,-4.3777,-2.6130,-0.1833,-0.8406,1.4123,20.83
3116922640000,323960,-8.3163,-3.8584,-2.5998,-0.2798,-0.8796,1.5614,20.81
3116933618600,323972,-8.9097,-3.2746,-2.5496,-0.2920,-0.9126,1.6212,20.81
3116945561000,323983,-18.9296,-2.6369,-2.4443,-0.2724,-0.9139,1.5528,20.81
3116956604400,323994,-10.1216,-4.9555,-2.6991,-0.0342,-0.0880,-0.6451,20.80
3116967666500,324005,-8.3904,-6.8399,-3.9159,0.2920,-0.2761,-0.5608,20.80
3116979340400,324017,-9.2423,-3.8273,-1.2957,-0.3103,-0.3323,0.1784,20.83
3116990919200,324028,-9.5270,-1.7192,-1.5278,-0.4081,-0.1185,0.5363,20.83
3117001672800,324039,-9.6215,-2.9432,-3.0736,-0.2004,0.0208,0.4643,20.81
3117012834100,324050,-9.7113,-4.0152,-2.8307,-0.2908,-0.0574,0.5559,20.81
3117024545400,324063,-11.9091,-3.1490,-1.0696,-0.4313,0.0086,0.8613,20.84
3117035583700,324074,-14.0566,0.6772,0.5324,-0.3457,0.5009,0.9603,20.84
3117047402600,324085,-13.3017,1.0600,-1.5637,-0.1197,1.7886,-0.0220,20.79
3117058559200,324097,-12.1340,-0.6341,-4.0068,0.1210,1.9010,-0.8418,20.80
3117069835000,324108,-10.1611,-2.6333,-5.2367,0.2969,1.6481,-1.4087,20.80
3117080696700,324119,-8.7326,-3.0772,-4.9388,0.3213,1.3134,-1.5492,20.82
3117092671100,324130,-7.3998,-3.6814,-4.0283,0.3555,1.0776,-1.4245,20.82
3117103632200,324142,-6.4905,-4.4195,-3.3511,0.3836,0.9627,-1.1325,20.82
3117114675900,324153,-5.7727,-4.0211,-3.1956,0.2053,0.9224,-0.7049,20.82
3117126753100,324164,-5.9175,-3.1741,-4.1169,-0.0122,0.7953,-0.1698,20.83
3117137616000,324175,-5.8660,-2.8008,-4.3825,0.0012,0.6158,-0.1014,20.82
3117148895500,324187,-5.7284,-2.5747,-4.5882,0.0464,0.3946,-0.1319,20.82
3117160421800,324198,-5.9139,-2.8463,-4.5368,0.0904,0.1698,-0.1967,20.86
3117171416500,324209,-6.0096,-3.0736,-4.1073,0.1026,-0.0318,-0.2187,20.86
3117182616300,324220,-6.1173,-3.1502,-3.7364,0.0574,-0.1710,-0.2004,20.83
3117193833700,324232,-6.4092,-3.3476,-3.6227,0.0379,-0.2627,-0.1747,20.83
3117205622800,324243,-6.7011,-3.9003,-3.2566,0.0525,-0.3335,-0.1368,20.82
3117216596300,324254,-7.2969,-3.8142,-3.0736,0.0208,-0.3787,-0.0024,20.82
3117227878500,324265,-7.4955,-3.6969,-3.1238,-0.0110,-0.3665,0.0586,20.82
3117239335000,324277,-7.8497,-3.5809,-3.3942,-0.0330,-0.3653,0.0806,20.82
3117250474800,324288,-8.2265,-3.5390,-3.5521,-0.0183,-0.3812,0.0574,20.82
3117261499800,324299,-8.3856,-3.6503,-3.5270,0.0183,-0.4117,0.0073,20.82
3117273263800,324311,-8.5687,-3.8812,-3.4337,0.0440,-0.4374,-0.0464,20.82
3117284618700,324322,-8.7996,-4.0175,-3.2315,0.0513,-0.4423,-0.0770,20.82
3117295658600,324334,-8.8917,-4.0810,-3.0473,0.0440,-0.4252,-0.1051,20.82
3117306848700,324345,-8.8750,-4.0391,-3.1633,-0.0220,-0.3714,-0.1161,20.81
3117318858800,324357,-8.7326,-3.9135,-3.2925,-0.0415,-0.3519,-0.1124,20.85
3117329633200,324368,-8.5639,-3.6838,-3.3488,-0.0489,-0.3396,-0.1002,20.85
3117340905400,324379,-8.4814,-3.5210,-3.4110,-0.0415,-0.3335,-0.0867,20.86
3117352582100,324390,-8.3330,-3.3559,-3.5007,-0.0305,-0.3286,-0.0586,20.86
3117363785300,324402,-8.0973,-3.2949,-3.5498,-0.0122,-0.3311,-0.0195,20.84
3117374873100,324413,-7.8006,-3.3882,-3.5689,0.0232,-0.3555,0.0403,20.84
3117386565900,324424,-7.0588,-3.6538,-3.4851,0.0110,-0.5034,0.2456,20.82
3117397533400,324435,-6.7657,-3.7400,-3.5091,-0.0244,-0.5840,0.4093,20.82
3117408918000,324447,-6.4439,-3.7232,-3.5713,-0.0574,-0.6854,0.6011,20.82
3117420416700,324458,-6.3482,-3.3523,-3.7101,-0.1161,-0.8222,0.8027,20.81
3117431805400,324469,-6.6150,-3.0138,-3.9470,-0.1967,-1.0043,0.9529,20.81
3117442502300,324481,-7.4596,-3.2913,-3.5474,-0.1796,-1.2217,1.0275,20.84
3117453497400,324492,-8.2241,-3.3081,-2.3474,-0.0855,-1.3549,1.0898,20.84
3117465446200,324503,-18.3506,-3.0389,-1.8317,-0.1271,-1.3268,1.1460,20.84
3117476489900,324514,-10.3693,5.9521,1.4572,0.3348,-0.4300,0.3348,20.84
3117488544300,324526,-11.5514,-4.6708,-2.8654,-0.0367,-0.0782,-1.0886,20.84
3117499506000,324537,-8.9169,-9.4564,-5.0788,0.7110,-0.3714,-1.0336,20.84
3117510642400,324548,-8.7841,-3.3715,-1.0050,-0.3396,-0.4887,0.2077,20.84
3117522422100,324560,-9.3021,-0.0814,-1.5446,-0.5205,-0.2505,0.6536,20.85
3117533489200,324572,-9.4564,-1.6211,-3.0640,-0.1222,-0.0464,0.4569,20.85
3117544722500,324583,-9.1645,-2.3174,-3.1286,-0.1393,-0.0721,0.4142,20.89
3117555992300,324594,-11.5011,-1.5338,-1.1641,-0.0635,0.0904,0.3311,20.89
3117567637800,324605,-12.5097,-1.5446,-0.2177,0.0562,0.4276,0.0782,20.88
3117578975100,324617,-12.6712,-1.9980,-0.2297,0.1148,0.8173,-0.2773,20.88
3117589754100,324628,-12.1053,-2.6536,-1.5589,0.1136,1.1179,-0.6585,20.88
3117601528400,324639,-11.2056,-3.0855,-3.1705,0.0806,1.1949,-0.9749,20.89
3117612671800,324651,-10.1575,-3.4959,-3.9972,0.1466,1.0751,-1.1863,20.89
3117623658500,324662,-8.9850,-3.7938,-3.6538,0.2236,0.9224,-1.2278,20.86
3117635599900,324673,-6.8483,-3.5402,-2.8666,0.2272,0.8344,-1.0971,20.86
3117646599200,324684,-6.5013,-3.2626,-3.2973,0.0208,0.8149,-0.6707,20.83
3117657569800,324696,-6.5157,-2.9180,-3.7747,-0.0391,0.7501,-0.5046,20.84
3117669439800,324707,-6.6174,-2.7278,-3.8740,-0.0049,0.6426,-0.4129,20.84
3117680647500,324718,-6.6221,-2.8283,-3.7627,0.0770,0.5253,-0.3665,20.87
3117691831900,324729,-6.5731,-3.0568,-3.6670,0.1148,0.4215,-0.3299,20.87
3117703387000,324741,-6.6317,-3.3009,-3.6658,0.1014,0.3238,-0.2859,20.84
3117714521900,324752,-6.7346,-3.4433,-3.7101,0.0684,0.2138,-0.2285,20.84
3117725662800,324763,-7.2060,-3.3667,-3.6108,0.0171,-0.0293,-0.1185,20.86
3117736658100,324774,-7.5793,-3.4373,-3.4648,0.0000,-0.1148,-0.0782,20.86
3117748383200,324786,-7.8748,-3.3392,-3.2865,0.0073,-0.1491,-0.0293,20.86
3117759624600,324797,-7.9645,-3.2423,-3.1813,0.0195,-0.1515,-0.0110,20.88
3117770695800,324809,-8.0399,-3.2794,-3.4050,0.0330,-0.1503,-0.0183,20.88
3117782648800,324820,-8.2588,-3.4780,-3.5402,0.0464,-0.1735,-0.0342,20.86
3117793590200,324832,-8.4969,-3.5880,-3.4050,0.0574,-0.2077,-0.0391,20.86
3117804574000,324843,-8.5890,-3.5366,-3.2411,0.0464,-0.2260,-0.0452,20.80
3117815517800,324854,-8.6501,-3.6275,-3.2985,0.0330,-0.1991,-0.0819,20.86
3117827621500,324866,-8.5448,-3.6084,-3.4122,0.0403,-0.1918,-0.0806,20.86
3117838631200,324877,-8.5986,-3.6969,-3.3595,0.0476,-0.1955,-0.0745,20.84
3117849751200,324888,-8.6907,-3.5677,-3.1884,0.0342,-0.1857,-0.0501,20.84
3117861475400,324899,-8.6728,-3.2913,-3.2052,0.0110,-0.1491,-0.0379,20.86
3117872585400,324911,-8.5926,-3.2459,-3.4720,0.0269,-0.1246,-0.0599,20.86
3117883647800,324922,-8.5699,-3.2997,-3.5713,0.0635,-0.1381,-0.0880,20.83
3117895466900,324933,-8.1093,-3.3392,-3.3488,0.0916,-0.1637,-0.1014,20.83
3117906653100,324944,-8.0327,-3.5294,-3.3823,0.1319,-0.1930,-0.0977,20.85
3117917754600,324956,-8.1069,-3.6838,-3.3930,0.1173,-0.2272,-0.0635,20.80
3117928710000,324967,-8.1823,-3.5545,-3.2195,0.0941,-0.2468,-0.0147,20.80
3117940631500,324978,-8.2134,-3.4181,-3.1059,0.0806,-0.2443,0.0061,20.89
3117951666000,324989,-8.1894,-3.4349,-3.1310,0.0721,-0.2443,-0.0171,20.89
3117962663900,325001,-8.1188,-3.5976,-3.2471,0.0819,-0.2639,-0.0513,20.86
3117974501500,325012,-7.8700,-3.7196,-3.2889,0.0904,-0.3152,-0.0623,20.86
3117985515100,325023,-7.6929,-3.7938,-3.1789,0.0770,-0.3812,0.0024,20.84
3117996717000,325035,-7.2849,-3.8943,-3.1968,0.0599,-0.4850,0.0904,20.85
3118007678000,325046,-6.8375,-4.2090,-3.2375,0.0806,-0.5498,0.2431,20.85
3118019705600,325057,-6.4164,-4.2975,-3.0532,0.0562,-0.6377,0.4691,20.87
3118030703800,325068,-5.8086,-4.0977,-2.9539,0.0244,-0.7318,0.7318,20.87
3118041572300,325080,-5.6985,-3.8381,-3.1920,-0.0232,-0.8528,1.0030,20.89
3118053307800,325091,-5.6064,-3.2841,-3.5055,-0.1332,-1.0580,1.2364,20.89
3118064601900,325102,-6.0945,-3.1478,-3.4217,-0.2114,-1.3439,1.4013,20.85
3118075948600,325113,-16.5189,7.3280,0.4068,1.0018,-1.0568,0.9701,20.85
3118087456500,325125,-11.7703,0.2441,-0.3218,1.3793,-0.3372,-1.1240,20.85
3118098467700,325136,-9.2937,-14.4909,-4.3418,2.0928,-0.4728,-1.6921,20.87
3118109657200,325148,-9.4170,-6.5850,0.1292,1.6750,-0.4533,-0.1234,20.87
3118121324900,325159,-9.0485,-1.4417,-0.3840,-0.3286,-0.1698,0.9248,20.84
3118132667800,325171,-9.3787,-1.4177,-2.7494,-0.3690,0.1087,0.8601,20.84
3118143854100,325182,-8.9659,-1.8772,-3.4600,-0.2334,0.1136,0.7587,20.85
3118154570200,325193,-9.2554,-1.6068,-2.3067,-0.2468,0.0354,0.7611,20.85
3118166571300,325204,-10.1396,-2.7876,-0.5480,-0.2529,0.1344,0.4545,20.84
3118177596900,325216,-13.1091,-0.8148,1.1174,-0.4520,0.4948,0.2431,20.87
3118188616700,325227,-14.7111,0.9595,0.3793,-0.5034,0.9420,-0.4875,20.87
3118200474200,325238,-14.4526,-0.0586,-1.7994,-0.2456,1.2364,-1.5895,20.84
3118211747400,325250,-13.0983,-3.4588,-3.1370,0.3079,1.2792,-2.5180,20.84
3118223478300,325261,-11.2487,-5.8804,-2.9575,0.7599,1.1570,-2.8772,20.84
3118234739000,325272,-9.2267,-4.0702,-2.4168,0.6939,1.0666,-2.7391,20.84
3118245621300,325283,-6.3123,-3.9147,-2.7793,0.3372,1.1680,-2.2761,20.85
3118256588400,325295,-5.4209,-4.3490,-2.9934,0.2224,1.1863,-1.8839,20.84
3118268583700,325306,-5.2475,-3.6072,-3.2662,-0.0684,1.1545,-1.4624,20.84
3118279696700,325317,-5.5119,-3.0508,-3.4588,-0.2443,1.1130,-1.1851,20.86
3118290721000,325328,-5.7129,-2.9228,-3.4457,-0.2688,1.0507,-1.0849,20.86
3118302607700,325340,-5.5502,-3.3894,-3.4062,-0.3433,0.9859,-1.0763,20.81
3118313792500,325352,-5.3994,-4.2329,-3.4481,-0.3958,0.9334,-1.0544,20.81
3118324717600,325363,-2.0578,-3.0329,-3.2853,-0.4679,0.8406,-0.9041,20.85
3118337002600,325374,-4.2903,-6.2536,-3.3954,-1.0214,0.7355,-0.5547,20.84
3118347635700,325386,-5.7069,-5.9246,-4.6062,-0.5791,0.5938,-0.3164,20.84
3118358825900,325397,-5.5167,-6.0694,-4.5990,-0.6267,0.3812,-0.0086,20.80
3118370581300,325408,-8.8822,-5.2558,-5.0788,-0.4227,0.1454,0.1991,20.80
3118381413200,325420,-4.9304,-4.0977,-4.5057,-0.0281,-0.0134,0.2981,20.83
3118392671200,325431,-6.4857,-4.7557,-4.5332,0.0110,-0.1405,0.1136,20.83
3118404530600,325442,-7.6104,-4.8287,-4.5368,0.2822,-0.2162,0.0293,20.84
3118415737200,325453,-7.4189,-4.6851,-3.6646,0.2101,-0.1539,0.1381,20.84
3118426799000,325465,-7.3484,-4.7605,-3.5545,-0.1588,-0.0733,0.1747,20.81
3118437781900,325476,-7.6283,-4.8562,-3.8943,-0.3946,-0.0269,0.2114,20.85
3118449530100,325487,-8.0267,-4.7450,-4.3083,-0.5412,-0.0367,0.2395,20.85
3118460745300,325498,-8.1703,-4.2293,-4.6241,-0.4814,-0.0745,0.2395,20.82
3118471851700,325510,-10.4877,-4.4806,-5.0381,-0.2578,-0.1075,0.2224,20.82
3118483425800,325521,-5.9031,-2.5579,-4.5176,0.2492,-0.0916,0.2162,20.85
3118494718700,325532,-8.1200,-4.5751,-4.6552,0.3861,-0.1210,0.0000,20.85
3118505636400,325543,-7.3472,-5.0381,-3.8608,0.6854,-0.2211,0.0489,20.80
3118516800200,325555,-7.4034,-5.0130,-3.7771,0.5339,-0.2712,0.1136,20.84
3118528607200,325566,-7.4668,-5.1230,-3.5115,0.3348,-0.2761,0.1442,20.84
3118539727200,325577,-7.6846,-4.8108,-3.7795,0.2822,-0.2566,0.1710,20.83
3118550668900,325588,-7.9023,-4.5021,-3.9506,0.2786,-0.2175,0.1784,20.83
3118562507700,325600,-7.8449,-4.3131,-3.9864,0.3580,-0.1674,0.1674,20.82
3118573712000,325611,-7.6534,-4.3490,-4.0762,0.4850,-0.1271,0.1503,20.82
3118584709400,325622,-7.4824,-4.5476,-3.7615,0.5424,-0.1185,0.1405,20.83
3118596367600,325634,-7.4919,-4.5858,-3.4684,0.4007,-0.1405,0.1674,20.82
3118607591800,325645,-7.4632,-4.8431,-3.4337,0.2663,-0.1845,0.2065,20.82
3118618700900,325657,-7.6977,-4.7342,-3.3176,0.1087,-0.2199,0.2627,20.81
3118630411300,325668,-7.9968,-4.4997,-3.2841,-0.0929,-0.2114,0.3384,20.81
3118641637700,325680,-8.1440,-4.0044,-3.3966,-0.1161,-0.1649,0.3824,20.86
3118652695200,325691,-8.2038,-3.9589,-3.8094,-0.0049,-0.1319,0.3690,20.86
3118663781900,325702,-8.1679,-4.0762,-4.1216,0.1686,-0.1491,0.3311,20.84
3118675679900,325713,-8.3545,-4.4674,-3.7747,0.2590,-0.2199,0.3213,20.84
3118686629100,325725,-8.5149,-4.4662,-3.6144,0.2712,-0.2077,0.3494,20.82
3118698023200,325736,-8.6560,-4.4949,-3.4911,0.2492,-0.1747,0.3543,20.86
3118709404100,325747,-8.6668,-4.3131,-3.5821,0.2627,-0.1356,0.3384,20.86
3118720393200,325758,-8.5998,-4.3681,-3.7687,0.3189,-0.1161,0.3030,20.83
3118731645700,325770,-8.1978,-4.4602,-3.4959,0.1955,-0.0965,0.3115,20.83
3118743479300,325781,-8.7242,-3.7484,-3.0796,-0.0379,-0.0147,0.3885,20.84
3118754687300,325792,-8.0124,-4.3741,-4.2221,-0.0806,-0.0232,0.3054,20.84
3118765570300,325804,-7.8102,-3.8608,-3.9350,0.1943,-0.2101,0.1747,20.84
3118776833200,325815,-7.7611,-4.2066,-3.5210,0.3042,-0.2957,0.1393,20.86
3118788543000,325826,-7.7145,-4.4722,-3.1202,0.3372,-0.3213,0.1588,20.86
3118799684400,325837,-7.8305,-4.4243,-2.8810,0.2517,-0.2908,0.2187,20.85
3118810726700,325849,-8.0686,-4.3681,-2.9504,0.1833,-0.2260,0.2566,20.85
3118822451800,325860,-8.2816,-4.2233,-3.1573,0.1564,-0.1686,0.2651,20.84
3118833572400,325871,-8.4718,-4.0475,-3.3452,0.1527,-0.1319,0.2517,20.84
3118844718300,325882,-8.5244,-3.9972,-3.4684,0.1332,-0.1148,0.2089,20.86
3118855620800,325894,-8.4144,-3.8524,-3.4995,0.0745,-0.0904,0.1258,20.86
3118867557500,325905,-8.3210,-3.7878,-3.6503,0.0672,-0.0855,0.1234,20.86
3118878811700,325916,-8.2792,-3.6981,-3.6562,0.1283,-0.1002,0.1429,20.86
3118889651200,325927,-8.2768,-3.8776,-3.4624,0.1906,-0.1405,0.1649,20.86
3118901473800,325939,-8.1846,-3.8776,-3.1837,0.1784,-0.1772,0.1808,20.86
3118913074800,325950,-8.1416,-3.7747,-3.1382,0.1246,-0.1796,0.1820,20.86
3118923516400,325961,-8.0566,-3.9709,-3.4301,0.1564,-0.1747,0.1613,20.82
3118935478600,325972,-8.3856,-4.1839,-3.2710,0.2272,-0.2443,0.1478,20.82
3118946596400,325984,-8.7218,-4.2736,-2.8618,0.1637,-0.2541,0.1234,20.85
3118957652300,325996,-8.8235,-4.3334,-2.7326,0.0929,-0.2187,0.0929,20.82
3118968687400,326007,-8.5591,-4.0845,-2.8774,0.0379,-0.1625,0.0599,20.82
3118980602300,326019,-8.2516,-3.9434,-3.3296,0.0257,-0.1405,0.0379,20.85
3118991623800,326030,-8.1440,-3.8967,-3.5174,0.0611,-0.1723,0.0330,20.85
3119002816800,326041,-8.1212,-3.9099,-3.1837,0.0415,-0.2114,0.0538,20.86
3119014452900,326052,-8.2792,-3.8010,-2.9623,0.0024,-0.2089,0.0965,20.86
3119025617200,326064,-8.6106,-3.7161,-3.1071,-0.0464,-0.1161,0.1148,20.84
3119036676200,326075,-8.6955,-3.6718,-3.2877,-0.0086,-0.0990,0.1075,20.86
3119048008400,326086,-8.8283,-3.7484,-3.2973,0.0208,-0.1038,0.0867,20.86
3119059551700,326097,-8.4275,-3.9230,-2.9994,-0.0061,-0.1002,0.0757,20.90
3119070867500,326109,-8.5914,-3.8632,-3.1262,-0.0464,-0.0843,0.1014,20.90
3119081719700,326120,-8.5196,-3.6742,-3.3583,-0.0672,-0.1124,0.0757,20.84
3119093482200,326131,-8.4873,-3.7472,-3.4600,0.0220,-0.1698,0.0183,20.84
3119104543700,326142,-8.3737,-3.9302,-2.9587,0.0696,-0.2297,0.0073,20.83
3119115725700,326154,-8.8475,-3.8512,-2.9180,-0.0220,-0.1869,0.0965,20.89
3119126666000,326165,-8.4861,-3.5785,-2.9360,0.0293,-0.1393,0.0855,20.89
3119138721000,326176,-8.1990,-4.1396,-2.9504,0.0098,-0.0929,0.1271,20.84
3119149898600,326188,-8.5759,-3.6742,-3.1095,0.0037,-0.0623,0.1894,20.84
3119160736300,326199,-8.3498,-3.4839,-3.1178,-0.0110,-0.0648,0.1674,20.85
3119172502100,326210,-8.7649,-3.9266,-3.0688,-0.0220,-0.0525,0.1894,20.85
3119183506700,326221,-9.0174,-3.4433,-3.0401,-0.0220,-0.0354,0.1943,20.82
3119194618000,326233,-9.1059,-3.1155,-3.2100,0.0757,-0.0208,0.0635,20.82
3119205581400,326244,-8.5041,-3.5677,-3.2423,0.3714,-0.0049,0.0049,20.84
3119217573700,326255,-8.5591,-3.5091,-3.1155,0.4789,0.0220,0.0367,20.83
3119228556000,326266,-8.6548,-3.4612,-3.0389,0.5339,0.0525,0.0648,20.83
3119239625200,326278,-8.4646,-3.6096,-3.2363,0.5327,0.0574,0.0574,20.85
3119251471100,326289,-8.4849,-3.6036,-2.9791,0.5559,0.0892,0.0843,20.85
3119262393700,326300,-8.4778,-3.4899,-3.0784,0.6072,0.1344,0.1063,20.84
3119273646200,326311,-8.3605,-3.7400,-2.9013,0.5547,0.1796,0.1246,20.84
3119284724200,326323,-8.4359,-4.1288,-3.3858,0.5082,0.2382,0.1136,20.84
3119296508200,326334,-8.3330,-3.6826,-2.9958,0.4594,0.2187,0.1307,20.84
3119307663000,326345,-8.3617,-3.9876,-2.8642,0.4203,0.2566,0.1283,20.84
3119318600000,326356,-8.1272,-3.7149,-2.9994,0.3983,0.3311,0.1772,20.84
3119329653900,326368,-8.2361,-3.7603,-2.8558,0.3091,0.4594,0.2468,20.84
3119341595400,326379,-8.3821,-3.8943,-3.3954,0.3372,0.5217,0.2639,20.86
3119352678500,326390,-8.4826,-3.7173,-3.2112,0.3738,0.5156,0.2700,20.86
3119363615900,326402,-8.5472,-3.8357,-3.2997,0.2260,0.4948,0.2712,20.86
3119375550800,326413,-8.5759,-3.7412,-3.2566,-0.0244,0.3995,0.1991,20.88
3119386481400,326424,-8.3892,-3.7974,-3.4002,-0.0745,0.3335,0.1576,20.88
3119397672300,326435,-8.3306,-3.6467,-3.3200,-0.0843,0.2822,0.1173,20.86
3119409435700,326447,-8.5508,-3.4959,-3.1478,-0.1332,0.2786,0.0977,20.86
3119420980200,326458,-8.4921,-3.5127,-3.2363,-0.1588,0.2761,0.0880,20.85
3119432089800,326469,-8.5807,-3.4648,-3.3607,-0.1881,0.2639,0.0745,20.85
3119442780600,326480,-8.8331,-3.6311,-3.6550,-0.1845,0.2175,0.0574,20.86
3119454478100,326492,-8.6668,-3.6586,-3.2662,-0.0476,0.1063,0.0086,20.86
3119465450600,326503,-8.5005,-3.5115,-3.3930,-0.0635,0.0562,0.0037,20.85
3119476812100,326514,-8.5627,-3.5258,-3.4074,-0.0782,0.0403,-0.0061,20.91
3119488462800,326525,-8.5053,-3.5258,-3.3476,-0.0550,0.0110,-0.0147,20.91
3119499612400,326538,-8.4802,-3.3811,-3.2626,-0.1026,0.0061,-0.0110,20.87
3119510757300,326549,-8.4383,-3.4971,-3.2758,-0.1723,0.0208,-0.0195,20.87
3119521762400,326560,-8.3641,-3.5306,-3.2399,-0.2676,0.0440,-0.0122,20.88
3119533652700,326572,-8.5101,-3.4528,-3.8596,-0.3103,0.0428,-0.0367,20.88
3119544631100,326583,-8.5137,-3.4875,-4.0714,-0.2419,-0.0428,-0.1368,20.85
3119555847100,326594,-8.5065,-3.6610,-3.4636,0.0269,-0.2468,-0.1710,20.83
3119567531900,326605,-8.5496,-3.5306,-3.4839,-0.0134,-0.2749,-0.1686,20.83
3119578687500,326617,-8.5496,-3.4911,-3.7149,-0.0134,-0.3201,-0.2040,20.86
3119589678000,326628,-8.5412,-3.3583,-3.7759,0.0672,-0.3958,-0.2541,20.86
3119601536400,326639,-8.6764,-3.4528,-3.4409,0.1381,-0.4850,-0.3152,20.86
3119612870800,326650,-8.8140,-3.5952,-3.3930,0.1759,-0.5669,-0.3506,20.86
3119623816500,326662,-8.7482,-3.8213,-3.1382,0.1564,-0.6304,-0.3482,20.83
3119635483300,326673,-8.4479,-3.7615,-3.0676,0.0220,-0.6646,-0.3042,20.87
3119646691100,326684,-8.2840,-3.7436,-3.0257,0.0220,-0.6585,-0.2944,20.87
3119657712000,326695,-8.5699,-3.6730,-2.9097,0.0574,-0.6035,-0.2773,20.86
3119668813000,326707,-8.5531,-3.6526,-3.3153,0.1210,-0.5986,-0.2761,20.86
3119680664800,326718,-8.5113,-3.6096,-3.2650,0.1686,-0.6304,-0.2773,20.88
3119691827200,326729,-8.2098,-3.6287,-3.3511,0.2297,-0.6463,-0.2871,20.88
3119702633300,326740,-8.3629,-3.7543,-2.9719,0.2529,-0.6280,-0.2896,20.88
3119714528100,326752,-8.1763,-3.9242,-2.9599,0.1552,-0.5486,-0.2468,20.88
3119725709500,326763,-8.2732,-4.1384,-2.3952,-0.0110,-0.3641,-0.1564,20.84
3119736826100,326774,-8.2277,-3.6981,-2.7864,-0.1148,-0.2334,-0.0696,20.86
3119748434000,326786,-8.3007,-3.6203,-3.2746,-0.1625,-0.1234,-0.0391,20.86
3119759612500,326797,-8.5854,-3.4744,-3.5306,-0.1332,-0.0586,-0.0122,20.85
3119770669700,326809,-8.3677,-3.6239,-3.5474,-0.0367,-0.0892,-0.0330,20.85
3119782487200,326820,-8.3976,-3.4540,-3.3272,0.0293,-0.0867,-0.0367,20.88
3119793538600,326832,-8.5496,-3.7412,-3.8118,0.1600,-0.0831,-0.0623,20.88
3119804920900,326843,-8.0471,-3.7603,-3.0329,0.4801,-0.2260,-0.0941,20.89
3119815701600,326854,-8.2935,-3.9888,-1.8377,0.5583,-0.1075,-0.0623,20.87
3119827539700,326865,-8.2887,-4.1743,-1.6678,0.4191,0.0990,0.0318,20.87
3119838645800,326877,-8.3318,-4.0140,-1.9214,0.1686,0.3311,0.1515,20.86
3119849905800,326888,-8.6034,-3.8154,-2.5484,-0.0147,0.5168,0.2615,20.86
3119861295700,326899,-8.6189,-3.6718,-3.2124,-0.0819,0.5718,0.3018,20.87
3119872429000,326910,-8.8259,-3.5139,-3.6945,0.0000,0.4826,0.2663,20.87
3119883876900,326922,-8.7553,-3.5641,-3.3846,0.1698,0.3067,0.1698,20.87
3119894687000,326933,-8.5723,-3.7926,-2.6788,0.2883,0.0831,0.0819,20.89
3119906371600,326944,-8.5496,-3.7902,-2.3198,0.2370,0.1002,0.0916,20.89
3119917606500,326956,-8.5986,-3.9159,-2.5472,0.1674,0.1295,0.0843,20.90
3119928878400,326967,-8.5962,-4.0630,-3.1238,0.1393,0.0867,0.0391,20.90
3119939643400,326978,-8.5567,-4.0510,-3.0281,0.1173,0.0134,0.0134,20.86
3119951548600,326989,-8.4766,-4.0379,-2.7218,0.0977,-0.0220,0.0086,20.86
3119962712000,327001,-8.5029,-3.9972,-2.6166,0.0464,-0.0098,0.0293,20.89
3119973613900,327012,-8.8379,-3.8716,-3.1968,-0.0318,0.0208,0.0538,20.89
3119985463900,327023,-8.4670,-3.6060,-3.1262,-0.0538,0.0220,0.0831,20.87
3119996540200,327034,-8.4491,-3.5856,-3.0066,-0.0208,0.0073,0.0525,20.81
3120007643500,327046,-8.4921,-3.6778,-3.2411,-0.0635,0.0037,0.0305,20.81
3120018587800,327057,-8.5723,-3.7519,-3.4732,-0.0134,-0.0147,0.0208,20.88
3120030451000,327068,-8.4168,-3.6622,-3.1310,0.0550,-0.0489,0.0232,20.88
3120041606300,327079,-8.3545,-3.9506,-2.5974,0.0476,-0.0550,-0.0037,20.88
3120052643300,327091,-8.5400,-3.9924,-2.5639,-0.0318,-0.0159,0.0012,20.88
3120063916400,327102,-8.6931,-3.6108,-3.6646,-0.1014,0.0110,0.0281,20.86
3120075603700,327113,-8.6333,-3.4911,-3.5545,0.0134,-0.1087,0.0110,20.89
3120086999600,327124,-8.4778,-3.4421,-3.3188,0.1002,-0.1747,-0.0183,20.89
3120097750700,327136,-8.6871,-3.5629,-3.1848,0.1405,-0.1991,-0.0440,20.92
3120109518400,327147,-8.5759,-3.6443,-3.2830,0.2566,-0.2382,-0.0586,20.92
3120120523200,327158,-8.6070,-3.8548,-2.6501,0.2859,-0.2663,-0.0733,20.91
3120131837000,327170,-8.4024,-3.8309,-2.7075,0.1723,-0.2688,-0.0721,20.91
3120143467500,327181,-8.6369,-3.8249,-2.8104,0.1234,-0.2627,-0.0745,20.93
3120154451900,327192,-8.5436,-3.6610,-3.1454,0.0855,-0.3836,-0.1417,20.93
3120166078700,327203,-8.6608,-3.8847,-2.6859,0.1539,-0.4068,-0.1588,20.89
3120176749000,327215,-8.3773,-3.8824,-2.7051,0.1649,-0.4154,-0.1600,20.89
3120188377100,327226,-8.4550,-3.8309,-2.8152,0.1075,-0.3836,-0.1417,20.89
3120199747600,327237,-8.4526,-3.7747,-2.6776,0.1417,-0.3604,-0.1405,20.88
3120210833400,327248,-8.6536,-3.8429,-2.6273,0.1393,-0.3311,-0.1332,20.88
3120222468300,327260,-8.5795,-3.7280,-2.6967,0.1161,-0.3274,-0.1283,20.86
3120233888300,327271,-8.7182,-3.9517,-2.9719,0.1258,-0.3079,-0.1161,20.86
3120245129700,327283,-8.5029,-3.7890,-2.6919,0.2443,-0.2896,-0.0892,20.86
3120256404700,327294,-8.6548,-3.7962,-2.6501,0.2517,-0.2492,-0.0623,20.92
3120267622400,327306,-8.3940,-3.7029,-2.6644,0.3103,-0.2297,-0.0550,20.92
3120279114700,327317,-8.5400,-3.8094,-2.6764,0.3238,-0.1869,-0.0672,20.90
3120290394100,327328,-8.4586,-3.8836,-2.9659,0.3751,-0.1613,-0.0648,20.90
3120301378800,327340,-8.5184,-4.0128,-2.7051,0.4569,-0.1588,-0.0733,20.88
3120313154500,327351,-8.5460,-4.3908,-2.3186,0.4288,-0.1405,-0.0672,20.88
3120323550100,327362,-8.3856,-3.8201,-1.9382,0.3042,-0.0342,0.1491,20.86
3120335428600,327373,-8.4275,-3.7842,-2.4682,0.1503,0.2566,0.1674,20.84
3120346511800,327385,-8.5304,-3.8010,-2.8104,0.0867,0.2859,0.1478,20.84
3120357722200,327396,-8.5591,-3.9601,-2.8714,0.1124,0.2517,0.1136,20.89
3120369397900,327407,-8.4491,-4.1157,-2.7338,0.1613,0.2077,0.0831,20.89
3120380479200,327418,-8.4622,-4.2855,-2.6836,0.1381,0.1747,0.0623,20.89
3120391702300,327430,-8.2959,-4.1791,-2.5591,0.0501,0.1564,0.0599,20.89
3120403080300,327441,-8.2445,-4.2293,-2.4012,-0.0049,0.1772,0.0489,20.89
3120414463300,327452,-8.4407,-3.8118,-2.5783,-0.0892,0.3115,0.0709,20.89
3120425584400,327463,-8.6429,-3.7424,-2.7206,-0.1393,0.3286,0.0562,20.89
3120437124700,327475,-8.9444,-3.7831,-2.8953,-0.1112,0.2981,0.0440,20.89
3120448366700,327486,-8.7948,-3.7077,-3.0832,-0.1332,0.2175,0.0293,20.89
3120459646900,327497,-8.5567,-3.7615,-2.8056,-0.1148,0.1527,0.0134,20.89
3120470990400,327508,-8.6752,-3.8333,-2.4826,-0.1295,0.1283,0.0037,20.89
3120481753000,327520,-8.6955,-3.9386,-2.6524,-0.1637,0.1087,-0.0147,20.89
3120493863300,327531,-8.6644,-3.9135,-2.9288,-0.1613,0.0709,-0.0244,20.89
3120505245200,327542,-8.5675,-4.0020,-2.4538,-0.1857,0.0086,-0.0220,20.90
3120515847000,327554,-8.5412,-3.9111,-2.4778,-0.2480,0.0293,-0.0024,20.92
3120527533700,327565,-8.4574,-3.9278,-2.6824,-0.3213,0.0574,-0.0012,20.92
3120538643300,327576,-8.6213,-3.7304,-3.1358,-0.3286,0.0501,-0.0183,20.92
3120549755100,327587,-8.7781,-3.5306,-3.8333,-0.2321,-0.0464,-0.0757,20.92
3120561508300,327599,-8.7685,-3.5713,-3.7364,-0.0904,-0.1943,-0.1405,20.89
3120572639000,327610,-8.6560,-3.5545,-3.2758,-0.0110,-0.3140,-0.1772,20.89
3120583661900,327621,-8.6776,-3.5378,-3.0150,0.0000,-0.3629,-0.1894,20.89
3120594684900,327632,-8.8331,-3.7053,-2.8953,0.1075,-0.4325,-0.2138,20.86
3120606535000,327644,-8.6225,-3.9398,-2.8451,0.1649,-0.4643,-0.2101,20.86
3120617724900,327655,-8.7099,-3.8333,-2.8080,0.1674,-0.4679,-0.1796,20.87
3120628685100,327666,-8.3557,-3.7316,-3.1478,0.2419,-0.4924,-0.1759,20.87
3120640472400,327678,-8.5543,-3.7807,-2.4682,0.2908,-0.4679,-0.1613,20.89
3120651867400,327690,-8.6166,-3.8584,-2.2552,0.2981,-0.3910,-0.1258,20.89
3120663111200,327701,-8.6596,-3.7926,-2.8762,0.2883,-0.3396,-0.1002,20.89
3120674474400,327712,-8.4897,-3.6981,-2.7924,0.3213,-0.3726,-0.0843,20.89
3120685554000,327724,-8.5460,-3.8620,-2.6177,0.4704,-0.3335,-0.0782,20.88
3120696822400,327735,-8.5137,-3.9541,-2.5472,0.4911,-0.2908,-0.0550,20.87
3120707593700,327746,-8.4024,-4.0953,-2.5041,0.4911,-0.2443,-0.0281,20.87
3120719617400,327757,-8.4311,-4.3729,-2.2313,0.4875,-0.1857,-0.0024,20.91
3120730546800,327769,-8.3031,-4.1300,-1.7994,0.4154,-0.0904,0.0684,20.91
3120741535400,327780,-8.3330,-4.1910,-2.0004,0.3103,0.0232,0.0855,20.90
3120753304000,327791,-8.3210,-4.1719,-2.3234,0.1869,0.0990,0.0843,20.90
3120764507400,327802,-8.3318,-4.1874,-2.1882,0.0476,0.2590,0.1344,20.88
3120775573800,327814,-8.3354,-4.1013,-2.2062,-0.0195,0.3592,0.1710,20.91
3120786655000,327825,-8.2564,-4.1061,-2.5771,-0.0684,0.4398,0.1894,20.91
3120798613700,327836,-8.0052,-4.0175,-2.8630,-0.1038,0.4936,0.1894,20.91
3120809708900,327847,-8.3653,-3.8824,-2.7673,-0.1478,0.5217,0.1625,20.91
3120820754200,327859,-8.8726,-3.9266,-2.4060,-0.1674,0.5082,0.1332,20.92
3120832340700,327870,-8.7817,-3.9015,-2.7422,-0.1784,0.4459,0.1136,20.92
3120843605100,327881,-8.2947,-3.8393,-2.9073,-0.2028,0.3763,0.0892,20.93
3120854636600,327892,-8.3833,-3.8764,-2.7470,-0.1796,0.3445,0.0867,20.89
3120866546900,327904,-8.3222,-3.8166,-2.8223,-0.2175,0.3726,0.1014,20.89
3120877441600,327915,-8.4431,-3.8213,-2.6429,-0.2883,0.4154,0.1087,20.91
3120888398600,327926,-8.5244,-3.6909,-2.8654,-0.3714,0.4765,0.1417,20.91
3120899532600,327938,-8.7685,-3.6981,-3.0102,-0.3861,0.4814,0.1503,20.89
3120911522800,327949,-8.8104,-3.7591,-3.0939,-0.3665,0.4276,0.1454,20.89
3120922475300,327960,-8.6465,-3.6957,-3.6311,-0.2615,0.3189,0.1087,20.89
3120934075900,327971,-8.7218,-3.7304,-3.2028,-0.1222,0.2040,0.0171,20.89
3120944744000,327983,-8.5747,-3.7005,-3.1609,0.0220,0.0269,-0.0171,20.91
3120956641600,327994,-8.5962,-3.5043,-2.9504,-0.0122,0.0073,-0.0159,20.89
3120967575800,328005,-8.5484,-3.6168,-3.0927,-0.0244,0.0024,-0.0281,20.89
3120978579300,328016,-8.5938,-3.6562,-3.1454,-0.0391,-0.0049,-0.0330,20.90
3120990746700,328028,-8.4514,-3.7914,-2.9037,-0.0672,-0.0208,-0.0354,20.90
3121001530800,328039,-8.4227,-3.7902,-2.7529,-0.1454,0.0024,-0.0232,20.91
3121012701100,328050,-8.5496,-3.7831,-3.2447,-0.2407,0.0391,-0.0134,20.91
3121024578900,328061,-8.6991,-3.3715,-4.1300,-0.0892,-0.1552,-0.1136,20.89
3121035628300,328073,-8.6764,-3.5533,-3.4205,0.0672,-0.2957,-0.1772,20.92
3121047277600,328085,-8.6644,-3.6120,-3.2638,0.1124,-0.3470,-0.1833,20.92
3121057752800,328096,-8.7266,-3.8524,-3.3117,0.1527,-0.3983,-0.1943,20.92
3121069510600,328108,-8.5639,-3.4887,-3.3643,0.2175,-0.4777,-0.2114,20.92
3121080560400,328119,-8.7434,-3.5952,-3.1298,0.3115,-0.5498,-0.2492,20.89
3121091872100,328130,-8.6596,-3.8752,-2.9037,0.3885,-0.6109,-0.2700,20.89
3121103600300,328141,-8.5484,-3.8405,-2.8367,0.3384,-0.6353,-0.2541,20.92
3121114464500,328153,-8.4538,-3.8584,-2.9372,0.3470,-0.6072,-0.2077,20.88
3121125731900,328164,-8.5651,-3.8536,-2.7182,0.4191,-0.5999,-0.1930,20.88
3121137437100,328175,-8.4933,-3.8740,-2.5244,0.4362,-0.5791,-0.1820,20.87
3121148461300,328186,-8.5651,-4.0211,-2.5161,0.3824,-0.5388,-0.1637,20.87
3121159729200,328198,-8.5328,-3.8405,-2.6201,0.3457,-0.5302,-0.1503,20.90
3121171525100,328209,-8.5065,-3.7531,-2.7769,0.3433,-0.5205,-0.1466,20.90
3121182575400,328220,-8.4526,-3.7914,-2.6273,0.3506,-0.4972,-0.1454,20.90
3121193687100,328231,-8.3186,-3.9338,-2.6154,0.3335,-0.4300,-0.1185,20.90
3121205515300,328243,-8.3306,-4.0259,-2.3426,0.2834,-0.3836,-0.1197,20.91
3121216552000,328254,-8.4132,-4.1671,-2.4407,0.2749,-0.3030,-0.1038,20.87
3121227486600,328265,-8.4706,-4.1946,-2.6058,0.2773,-0.2529,-0.0782,20.87
3121238642800,328276,-8.4096,-4.0726,-2.6213,0.2932,-0.2297,-0.0611,20.87
3121250392100,328288,-8.4467,-4.0510,-2.6082,0.2993,-0.2016,-0.0599,20.87
3121261687300,328299,-8.5651,-4.1635,-2.6955,0.3384,-0.1943,-0.0696,20.91
3121273103100,328310,-8.5878,-4.2353,-1.7647,0.3470,-0.2065,-0.0599,20.91
3121284388800,328322,-8.2086,-3.9960,-1.1892,0.1735,0.0440,0.0611,20.89
3121295645400,328333,-8.4084,-4.0463,-1.5733,0.0562,0.2639,0.1038,20.93
3121307056100,328344,-8.6788,-4.0786,-2.0626,-0.0024,0.3714,0.1112,20.93
3121318086500,328355,-8.7015,-4.0499,-2.7840,-0.0037,0.3348,0.0855,20.93
3121329666100,328367,-8.6548,-4.2257,-2.8211,0.0440,0.2150,0.0354,20.93
3121341054600,328378,-8.3593,-4.2485,-2.3354,0.0086,0.1454,0.0305,20.87
3121351535200,328389,-8.4562,-4.1157,-1.9490,-0.0990,0.1857,0.0513,20.87
3121363338200,328400,-8.4945,-4.0726,-2.4838,-0.1723,0.2456,0.0464,20.89
3121375030600,328413,-8.2851,-3.8213,-2.6895,-0.1955,0.3494,0.0428,20.91
3121385657400,328424,-8.9288,-3.9218,-2.5591,-0.1918,0.3836,0.0342,20.91
3121397180500,328435,-8.7805,-3.8118,-2.9396,-0.1319,0.3396,0.0513,20.89
3121408331900,328446,-8.5424,-3.9960,-3.0951,-0.0354,0.2712,0.0428,20.89
3121419483000,328458,-8.5603,-4.1192,-2.6381,0.0122,0.2468,0.0648,20.89
3121430939900,328469,-8.3306,-4.1444,-2.2732,-0.0318,0.2590,0.0941,20.89
3121442609000,328480,-8.3605,-3.9876,-2.1464,-0.2089,0.3580,0.1344,20.89
3121453504800,328492,-9.0126,-3.6395,-3.1848,-0.2896,0.4435,0.1222,20.89
3121464623400,328503,-8.7805,-3.8501,-3.4373,-0.0648,0.2260,0.0354,20.93
3121475940300,328514,-8.6895,-3.9446,-2.9755,0.0635,0.0696,-0.0281,20.88
3121487419300,328525,-8.6106,-3.7424,-2.6955,0.1002,-0.0073,-0.0464,20.88
3121498395900,328537,-8.5196,-4.0415,-2.5603,0.0684,-0.0147,-0.0550,20.90
3121509859200,328548,-8.5436,-3.9793,-2.3749,0.0391,-0.0024,-0.0525,20.90
3121521607100,328559,-8.5926,-3.9601,-2.3952,-0.0501,0.0232,-0.0440,20.90
3121532499800,328570,-8.6082,-3.9924,-2.6632,-0.1307,0.0428,-0.0305,20.90
3121543876600,328582,-8.4981,-3.8453,-2.8881,-0.1710,0.0305,-0.0208,20.90
3121554536500,328593,-8.5077,-3.8201,-3.0951,-0.1723,0.0318,-0.0232,20.92
3121566496300,328604,-8.5256,-3.8429,-3.3320,-0.1600,0.0232,-0.0257,20.92
3121577726200,328615,-8.5029,-3.9147,-3.2028,-0.1136,-0.0098,-0.0318,20.91
3121588654400,328627,-8.4778,-3.8836,-3.1131,-0.0904,-0.0513,-0.0415,20.91
3121600256700,328638,-8.5472,-3.9936,-2.9958,-0.0757,-0.0904,-0.0599,20.92
3121611666000,328649,-8.6070,-3.8704,-2.9324,-0.0709,-0.1185,-0.0586,20.92
3121622502500,328660,-8.6644,-3.7902,-3.2339,-0.0293,-0.1784,-0.0892,20.91
3121634263200,328672,-8.5543,-3.6694,-2.8403,0.0476,-0.3189,-0.1466,20.92
3121645575900,328683,-8.6883,-3.8608,-2.8702,0.0489,-0.3409,-0.1698,20.92
3121656659000,328694,-8.8367,-3.8130,-3.2267,0.1075,-0.4019,-0.1845,20.90
3121667589200,328706,-8.8618,-4.0606,-2.9180,0.2334,-0.5021,-0.2077,20.90
3121679578200,328717,-8.4993,-3.9386,-2.7087,0.3470,-0.5657,-0.1943,20.92
3121690995400,328728,-8.7027,-3.9051,-2.4694,0.3213,-0.5864,-0.1930,20.92
3121701543600,328739,-8.4766,-3.8249,-2.3749,0.2896,-0.5938,-0.1943,20.90
3121713445500,328751,-8.4311,-4.0331,-2.4383,0.2663,-0.5693,-0.1845,20.90
3121724535700,328762,-8.7278,-4.0522,-1.9202,0.3262,-0.4435,-0.0977,20.89
3121735793700,328773,-8.6094,-4.0140,-2.5292,0.3067,-0.3787,-0.0586,20.93
3121747420400,328784,-8.7302,-3.8034,-2.7254,0.3262,-0.3812,-0.0391,20.93
3121758598700,328796,-8.8666,-3.4935,-2.4742,0.4117,-0.4068,-0.0293,20.91
3121769445800,328808,-8.5950,-3.6263,-2.5723,0.4691,-0.3995,-0.0391,20.91
3121780785000,328819,-8.5340,-3.6287,-2.6297,0.5278,-0.3775,-0.0391,20.93
3121792557500,328830,-8.5735,-3.8680,-2.3940,0.5693,-0.3470,-0.0428,20.93
3121803670100,328842,-8.4538,-4.2162,-1.7408,0.4594,-0.2480,-0.0269,20.90
3121814429700,328853,-8.4526,-4.3083,-1.8676,0.3702,-0.1735,-0.0183,20.89
3121826536400,328864,-8.4311,-4.3920,-2.0782,0.3201,-0.1197,-0.0037,20.89
3121837592500,328876,-8.3809,-4.4255,-2.1117,0.2810,-0.0953,-0.0049,20.94
3121848692200,328887,-8.3390,-4.5763,-2.2337,0.2138,-0.0819,-0.0208,20.94
3121860522500,328898,-8.3366,-4.4830,-2.2277,0.1625,-0.0574,-0.0147,20.93
3121871771000,328909,-8.3306,-4.6086,-2.1894,0.1796,-0.0269,-0.0220,20.93
3121882571000,328921,-8.1739,-4.7569,-1.7348,0.1344,0.0183,-0.0024,20.91
3121893713700,328932,-8.0961,-4.3502,-1.4477,-0.0770,0.2541,0.0721,20.91
3121905526900,328943,-8.2229,-4.1743,-2.1655,-0.1943,0.4203,0.0831,20.91
3121916637700,328954,-8.7721,-3.8608,-2.6022,-0.1332,0.4704,0.0599,20.91
3121927488000,328966,-8.9228,-3.9111,-2.6812,-0.0880,0.3738,0.0220,20.91
3121939241700,328977,-8.7757,-4.0104,-2.7817,-0.0916,0.2566,-0.0098,20.91
3121950817300,328988,-8.4766,-4.0116,-2.3916,-0.0990,0.1869,-0.0220,20.91
3121961719600,328999,-8.6692,-4.0810,-2.2839,-0.1075,0.1991,-0.0122,20.90
3121972831200,329011,-8.7577,-4.1336,-1.6845,-0.1075,0.2138,0.0049,20.90
3121984381300,329022,-8.6261,-4.1384,-2.0650,-0.1356,0.3567,0.1222,20.92
3121995735300,329033,-8.7482,-4.0128,-2.2744,-0.1808,0.3836,0.1515,20.91
3122006770700,329044,-8.7912,-3.8417,-2.7637,-0.1197,0.3433,0.1466,20.91
3122018481400,329056,-8.8618,-3.8357,-3.1693,-0.0049,0.2285,0.0977,20.92
3122029347300,329067,-8.7266,-4.0008,-2.8319,0.0831,0.0965,0.0538,20.92
3122040429000,329078,-8.6871,-3.9769,-2.3880,0.1368,0.0195,0.0354,20.93
3122051756000,329090,-8.5938,-4.1372,-2.1763,0.1038,0.0000,0.0293,20.93
3122063520100,329101,-8.6656,-4.0343,-2.5878,0.0195,-0.0073,0.0195,20.91
3122074486600,329112,-8.7553,-3.9936,-3.1346,-0.0147,-0.0305,0.0269,20.92
3122085639400,329123,-8.5866,-3.7699,-3.0090,0.1051,-0.0941,0.0257,20.92
3122096982100,329135,-8.5029,-3.8237,-2.7697,0.1698,-0.1393,0.0049,20.93
3122108411100,329146,-8.4443,-4.1192,-2.5161,0.1784,-0.1527,-0.0195,20.93
3122119425600,329157,-8.2481,-4.1803,-2.4538,0.1063,-0.1332,-0.0257,20.89
3122131317200,329168,-8.3952,-4.3382,-2.4479,0.0440,-0.0916,-0.0281,20.89
3122142401200,329180,-8.4299,-4.2939,-2.4562,0.0098,-0.0623,-0.0159,20.91
3122153597000,329191,-8.5771,-3.9194,-2.7817,-0.0257,-0.0428,0.0122,20.91
3122164643200,329202,-8.5543,-3.7149,-2.7625,-0.0648,-0.0648,0.0024,20.88
3122175722000,329213,-8.5316,-3.8106,-2.5292,-0.0232,-0.0867,-0.0293,20.94
3122187505500,329225,-8.4096,-4.0092,-2.3797,0.0024,-0.0843,-0.0611,20.94
3122198471300,329236,-8.3342,-4.0666,-2.5328,-0.0134,-0.0672,-0.0880,20.92
3122209581100,329247,-8.4203,-4.1922,-2.5388,-0.0489,-0.0721,-0.1185,20.92
3122221327600,329259,-8.6201,-4.3250,-2.4048,-0.1197,-0.0794,-0.1234,20.91
3122232706300,329270,-8.4897,-4.0941,-2.4921,-0.1723,-0.0770,-0.1087,20.91
3122243747400,329282,-8.5998,-4.2497,-2.4179,-0.1784,-0.1002,-0.1100,20.90
3122255432800,329293,-8.6453,-4.0116,-2.7015,-0.1576,-0.1222,-0.1075,20.90
3122266509400,329305,-8.7159,-4.0164,-2.6118,-0.1356,-0.1539,-0.1112,20.90
3122277720600,329316,-8.7230,-3.7388,-2.3378,-0.1283,-0.1466,-0.0770,20.89
3122289452700,329327,-8.6847,-3.5258,-2.5699,-0.1478,-0.1136,-0.0525,20.89
3122300620900,329338,-8.8187,-3.5868,-3.3224,-0.1051,-0.1600,-0.1075,20.90
3122311652100,329350,-8.7829,-3.7735,-2.9575,-0.0073,-0.2688,-0.1539,20.90
3122322798400,329361,-8.7075,-4.3334,-2.3318,0.0880,-0.3335,-0.1491,20.91
3122334529000,329372,-8.6082,-3.9984,-2.3581,0.0623,-0.3421,-0.1075,20.93
3122345662400,329383,-8.8319,-4.1240,-2.4921,0.1234,-0.3445,-0.1087,20.93
3122356802900,329395,-8.6704,-3.9613,-2.5232,0.2309,-0.3775,-0.0941,20.95
3122368354100,329406,-8.6931,-3.9757,-2.2481,0.2993,-0.3848,-0.0819,20.95
3122379543100,329417,-8.6788,-4.0630,-2.3976,0.3286,-0.3665,-0.0648,20.93
3122391092300,329428,-8.5831,-3.9637,-2.5065,0.3470,-0.3360,-0.0293,20.93
3122402569800,329440,-8.7027,-4.0092,-2.6261,0.3812,-0.3262,-0.0122,20.89
3122413654100,329451,-8.5484,-3.8847,-2.1811,0.4191,-0.3128,-0.0305,20.90
3122425087700,329462,-8.4921,-4.0522,-2.2768,0.3836,-0.2688,-0.0293,20.90
3122436379400,329474,-8.4191,-4.0941,-2.3294,0.3519,-0.2162,-0.0147,20.91
3122447524700,329485,-8.3390,-4.1958,-2.2385,0.3299,-0.1637,-0.0134,20.91
3122458604500,329496,-8.4108,-4.4483,-2.1284,0.3067,-0.1197,-0.0269,20.91
3122469692300,329507,-8.3773,-4.6373,-1.4477,0.2114,-0.0757,-0.0024,20.91
3122481451500,329519,-8.4227,-4.4602,-1.4154,0.1197,0.0293,0.0513,20.90
3122492621500,329530,-8.5089,-4.1755,-2.1248,0.0660,0.1258,0.0684,20.90
3122503655000,329541,-8.6919,-4.2090,-2.2540,0.1100,0.1381,0.0489,20.91
3122515175000,329552,-8.6166,-4.0427,-2.3545,0.1271,0.0953,0.0367,20.90
3122526393800,329564,-8.4455,-4.2305,-2.1476,0.1051,0.0623,0.0086,20.90
3122537592500,329575,-8.4191,-4.4530,-1.8209,0.0586,0.0745,-0.0012,20.92
3122548582600,329586,-8.3964,-4.1599,-1.9848,-0.0342,0.1466,0.0330,20.92
3122560366300,329597,-8.3282,-4.1779,-2.5747,-0.0452,0.1881,0.0195,20.91
3122571536900,329610,-8.1799,-4.1695,-2.2648,-0.0489,0.2053,0.0000,20.91
3122582616800,329620,-8.4311,-4.2604,-2.4849,-0.0953,0.2737,-0.0208,20.92
3122594070600,329632,-9.0006,-4.1982,-2.1069,-0.1784,0.2529,-0.0440,20.88
3122605626700,329644,-8.8247,-4.0630,-2.1823,-0.1833,0.1698,-0.0538,20.88
3122616349200,329655,-8.7805,-3.9386,-2.3366,-0.1710,0.1038,-0.0660,20.86
3122627613400,329666,-8.8762,-3.8369,-2.6632,-0.1307,0.0562,-0.0770,20.86
3122639594900,329677,-8.8379,-3.7364,-2.6859,-0.0611,-0.0086,-0.0843,20.88
3122650472700,329689,-8.7099,-3.9996,-2.4634,-0.0012,-0.0538,-0.1026,20.88
3122661576700,329700,-8.6201,-4.1444,-2.3019,0.0244,-0.0672,-0.1014,20.89
3122673424300,329711,-8.5843,-4.3657,-2.1320,0.0452,-0.0586,-0.0733,20.89
3122684463500,329722,-8.5567,-4.3226,-2.1332,0.0073,-0.0403,-0.0476,20.91
3122695377300,329734,-8.5627,-4.4267,-2.2851,-0.0257,-0.0208,-0.0244,20.89
3122706499800,329745,-8.5854,-4.0666,-2.5699,-0.0880,-0.0073,0.0049,20.89
3122718546100,329756,-8.5783,-3.9984,-2.8128,-0.0562,-0.0232,-0.0037,20.90
3122729566900,329767,-8.5603,-3.9553,-2.6417,0.0086,-0.0623,-0.0208,20.90
3122741037400,329779,-8.5591,-4.0487,-2.3569,0.0672,-0.0855,-0.0379,20.91
3122752321200,329790,-8.5424,-4.2724,-2.2839,0.0806,-0.0831,-0.0428,20.91
3122763580400,329801,-8.5448,-4.1515,-2.0148,0.0318,-0.0611,-0.0269,20.90
3122774505500,329812,-8.6919,-4.1288,-1.7922,-0.0257,-0.0330,-0.0195,20.94
3122785568800,329824,-9.0676,-4.2353,-2.7242,-0.0415,-0.0147,0.0000,20.94
3122797501300,329835,-9.0676,-3.8333,-3.4253,0.0403,-0.1246,0.0269,20.89
3122808548900,329846,-8.9252,-3.6263,-3.0700,0.1979,-0.3042,0.0061,20.89
3122819720600,329858,-8.6178,-3.4062,-2.9408,0.3738,-0.4203,-0.0305,20.89
3122830773400,329869,-8.8044,-3.5222,-2.3509,0.4924,-0.4472,-0.0757,20.89
3122842390200,329880,-8.7661,-3.8189,-2.0375,0.5999,-0.4337,-0.0794,20.92
3122853743300,329891,-8.6979,-3.8106,-1.8939,0.6500,-0.3519,-0.0073,20.95
3122864743900,329903,-8.4311,-3.5557,-1.8580,0.6072,-0.2492,0.0232,20.95
3122876858500,329914,-8.5029,-3.9458,-1.9310,0.6255,-0.1527,-0.0183,20.95
3122887635100,329925,-8.4299,-4.2329,-1.7779,0.5559,-0.0538,0.0061,20.95
3122898584900,329936,-8.2493,-4.4758,-1.6487,0.4765,0.0525,0.0403,20.94
3122910312600,329948,-7.9813,-4.9711,-1.4991,0.2944,0.1662,0.0611,20.94
3122921643700,329959,-8.0339,-4.5715,-1.7838,0.1161,0.2883,0.0855,20.93
3122932601900,329970,-8.0746,-4.6863,-2.5041,-0.0415,0.3726,0.0269,20.93
3122943456100,329981,-8.6405,-4.9615,-1.9502,-0.1405,0.3995,-0.0232,20.94
3122955486200,329993,-8.6178,-4.6899,-1.8341,-0.2871,0.3665,0.0073,20.98
3122966376100,330004,-8.7517,-4.2090,-1.5793,-0.5058,0.3519,0.0024,20.98
3122978227700,330015,-9.1143,-3.5342,-1.9681,-0.6817,0.3531,-0.0550,20.92
3122989240500,330027,-11.3192,-2.4275,-2.4179,-0.6732,0.3616,-0.2248,20.92
3123001201200,330038,-11.5190,-1.9490,-2.5424,-0.3836,0.3787,-0.6109,20.90
3123011951100,330050,-10.6505,-2.5065,-3.5174,0.0098,0.3738,-1.0153,20.90
3123023569700,330061,-8.4622,-3.5498,-3.4516,0.4814,0.2089,-1.1826,20.94
3123034924700,330073,-7.6187,-4.3370,-2.5507,0.6842,0.1210,-1.0690,20.93
3123045806900,330084,-6.7143,-5.2319,-1.8006,0.7282,0.1307,-0.8772,20.93
3123057385400,330095,-6.1938,-5.9928,-1.7647,0.6170,0.1845,-0.5327,20.93
3123068489400,330106,-6.7848,-5.3109,-1.8616,0.3140,0.2211,-0.0757,20.93
3123079454700,330118,-7.5410,-4.8263,-2.2804,0.1454,0.2248,0.1759,20.96
3123090574200,330129,-8.2588,-4.9699,-2.8056,0.1222,0.1515,0.2114,20.96
3123102451300,330140,-8.4885,-5.2845,-2.2552,0.1210,0.0208,0.1442,20.93
3123113636800,330151,-8.3163,-5.4090,-1.7994,0.0904,-0.0929,0.0293,20.90
3123124610200,330163,-8.1715,-5.2247,-1.8353,-0.0232,-0.0562,0.0208,20.90
3123136443800,330174,-8.1500,-5.0381,-2.1009,-0.1283,-0.0171,0.0012,20.94
3123147497900,330185,-8.1236,-4.9795,-2.2851,-0.1967,0.0024,-0.0354,20.94
3123158504100,330196,-8.0351,-5.0596,-2.4036,-0.2492,0.0061,-0.0635,20.96
3123169548100,330208,-7.9968,-5.1194,-2.5950,-0.2932,0.0086,-0.0501,20.96
3123181243400,330219,-8.0638,-5.2989,-2.7290,-0.2871,-0.0012,-0.0049,20.93
3123192526300,330230,-8.2947,-4.7079,-2.5065,-0.2969,-0.0037,0.0867,20.93
3123203564400,330242,-8.2804,-4.6110,-2.7565,-0.3018,0.0611,0.0623,20.94
3123215200700,330253,-8.2277,-4.6433,-2.9312,-0.2639,0.0806,0.0318,20.94
3123226626600,330264,-8.1129,-4.7916,-2.8283,-0.2431,0.0855,0.0110,20.94
3123237688400,330275,-8.0231,-4.9077,-2.6728,-0.2908,0.0819,-0.0086,20.93
3123248775100,330287,-8.0136,-5.0584,-2.6501,-0.3690,0.0733,-0.0379,20.93
3123260504100,330298,-8.0638,-5.0381,-2.6692,-0.4264,0.0745,-0.0611,20.92
3123271358800,330309,-7.9537,-4.8335,-2.9121,-0.4154,0.0745,-0.0696,20.92
3123282795300,330320,-8.4132,-4.8658,-2.9396,-0.2480,0.0379,-0.0965,20.87
3123294412400,330332,-8.4826,-4.7055,-2.4610,-0.2224,0.0709,-0.1258,20.91
3123305594900,330343,-8.3318,-4.7809,-2.4778,-0.2150,0.1613,-0.1429,20.91
3123316546600,330354,-8.3007,-4.8682,-2.7123,-0.2285,0.2443,-0.1075,20.94
3123327775500,330365,-8.1607,-4.5882,-2.9240,-0.2773,0.2761,-0.0562,20.94
3123339493500,330377,-7.7886,-4.2939,-3.0879,-0.3042,0.2615,-0.0611,20.96
3123350606400,330388,-7.7839,-4.2796,-3.3799,-0.3115,0.2053,-0.1185,20.96
3123361696100,330399,-7.6989,-4.7785,-3.4744,-0.2969,0.1051,-0.1735,20.93
3123373373400,330411,-8.2349,-4.7844,-3.0437,-0.1906,0.0000,-0.1307,20.91
3123384794000,330422,-8.6022,-4.6409,-2.5771,-0.2028,0.0574,-0.0770,20.91
3123395654600,330433,-8.7984,-4.4148,-2.4467,-0.2419,0.1857,-0.0574,20.96
3123407360500,330445,-8.5795,-4.3238,-2.7673,-0.2395,0.3262,-0.0745,20.96
3123418482300,330457,-8.2672,-4.2999,-3.1418,-0.2346,0.4264,-0.1051,20.90
3123429528200,330468,-7.9011,-4.2090,-3.4732,-0.2602,0.4459,-0.1161,20.90
3123440533400,330479,-7.5589,-4.2305,-3.7232,-0.2370,0.3983,-0.1283,20.91
3123452542900,330490,-7.4919,-4.3322,-3.8728,-0.1552,0.3030,-0.1356,20.91
3123463750100,330502,-7.6020,-4.3968,-3.6778,-0.0513,0.1405,-0.1075,20.89
3123474641000,330513,-7.5541,-4.3896,-3.6263,0.0086,0.0977,-0.0745,20.92
3123486431300,330524,-7.4369,-4.3585,-3.6526,0.0269,0.0648,-0.0550,20.92
3123497524200,330535,-7.5565,-4.4471,-3.7137,0.0195,0.0318,-0.0550,20.92
3123508641500,330547,-7.8114,-4.4554,-3.7424,0.0086,-0.0061,-0.0599,20.92
3123519809000,330558,-8.1344,-4.4985,-3.6443,0.0159,-0.0208,-0.0672,20.96
3123531745700,330569,-8.2445,-4.5212,-3.4026,0.0415,0.0110,-0.0721,20.96
3123542628200,330580,-7.9238,-4.4291,-3.5462,0.0403,0.0843,-0.0782,20.93
3123553641400,330592,-7.5661,-4.4351,-3.8345,0.0110,0.0623,-0.0831,20.94
3123565323000,330603,-7.4297,-4.5775,-3.9517,0.0183,-0.0049,-0.0819,20.94
3123576623300,330614,-7.2933,-4.6146,-3.8453,0.0061,-0.0953,-0.0660,20.96
3123587726500,330626,-7.3125,-4.6325,-3.7591,-0.0024,-0.1710,-0.0379,20.96
3123598931300,330637,-7.8126,-4.7390,-3.5844,0.0061,-0.2101,0.0024,20.92
3123610499500,330648,-8.2409,-4.6074,-3.2112,-0.0024,-0.1943,0.0403,20.92
3123621643800,330659,-8.4945,-4.3549,-3.4181,-0.0232,-0.1271,0.0379,20.94
3123632843200,330671,-8.2122,-4.3011,-3.7029,0.0721,-0.0452,-0.0757,20.92
3123644435800,330682,-7.7169,-4.4148,-3.8752,0.1332,-0.0782,-0.0990,20.92
3123655518700,330693,-7.4560,-4.5200,-3.8261,0.1759,-0.1381,-0.0867,20.93
3123666605900,330704,-7.2467,-4.6600,-3.6144,0.1613,-0.2028,-0.0525,20.93
3123678530100,330716,-7.3819,-4.7545,-3.4481,0.1368,-0.2480,-0.0049,20.98
3123689653200,330727,-7.8006,-4.8275,-3.3165,0.0892,-0.2761,0.0305,20.98
3123700709900,330738,-8.2756,-4.7964,-3.1525,0.0843,-0.2712,0.0403,20.95
3123711568100,330749,-8.2744,-4.5117,-3.2136,0.0831,-0.2224,0.0330,20.95
3123723564600,330761,-8.2002,-4.3131,-3.3990,0.0757,-0.1161,-0.0098,20.94
3123734488700,330772,-8.0518,-4.2915,-3.4552,0.0990,-0.0929,-0.0489,20.95
3123746083900,330783,-7.8365,-4.4662,-3.4540,0.1161,-0.1002,-0.0782,20.95
3123757540900,330795,-7.6881,-4.5643,-3.4373,0.0990,-0.1197,-0.0757,20.97
3123768498300,330806,-7.7408,-4.7210,-3.3643,0.0806,-0.1283,-0.0525,20.97
3123779845400,330817,-7.7839,-4.7904,-3.2674,0.0733,-0.1283,-0.0269,20.95
3123790881800,330828,-7.7815,-4.8096,-3.2614,0.0574,-0.1295,-0.0110,20.95
3123802624800,330840,-7.7970,-4.7486,-3.4062,0.0525,-0.1491,-0.0061,20.91
3123813592800,330851,-7.8987,-4.7378,-3.3488,0.0452,-0.2297,0.0134,20.96
3123824839600,330862,-8.1129,-4.5835,-3.1155,0.0367,-0.2382,0.0415,20.96
3123836460300,330874,-8.3749,-4.4040,-2.9240,0.0293,-0.1979,0.0513,20.95
3123847399800,330886,-8.4909,-4.3621,-2.8606,0.0476,-0.1210,0.0318,20.95
3123862191400,330897,-8.4084,-4.4088,-3.0281,0.0648,-0.0562,-0.0073,20.97
3123869763100,330908,-8.2038,-4.4243,-3.3129,0.0770,-0.0403,-0.0550,20.97
3123882056900,330919,-7.8808,-4.4830,-3.4875,0.1100,-0.0611,-0.0843,21.01
3123892974100,330931,-7.5745,-4.6708,-3.4050,0.1271,-0.1307,-0.0428,20.93
3123903670300,330942,-7.6271,-4.7749,-3.2865,0.1234,-0.1539,-0.0049,20.93
3123915745000,330953,-7.7958,-4.8993,-3.0939,0.1112,-0.1588,0.0354,20.97
3123926626100,330964,-8.0518,-4.8431,-3.0293,0.0953,-0.1527,0.0745,20.97
3123937847900,330976,-8.3306,-4.6828,-2.9850,0.0709,-0.1271,0.0892,20.97
3123948922600,330987,-8.3474,-4.4818,-3.0473,0.0562,-0.0916,0.0745,20.97
3123960577400,330998,-8.3438,-4.3537,-3.2279,0.0599,-0.0660,0.0379,20.96
3123971651200,331010,-8.2373,-4.1874,-3.3141,0.0684,-0.0660,-0.0012,20.96
3123982800900,331021,-7.8174,-4.4459,-3.3141,0.1087,-0.0990,-0.0354,20.96
3123994950900,331032,-7.7396,-4.6445,-3.3188,0.1173,-0.1368,-0.0086,20.93
3124005573300,331043,-7.8951,-4.6301,-3.2662,0.1136,-0.1772,0.0232,20.93
3124016391700,331055,-8.0674,-4.6983,-3.0688,0.1197,-0.2040,0.0293,20.99
3124027734300,331066,-7.9789,-4.8945,-2.9037,0.1466,-0.2077,0.0269,20.99
3124039446400,331077,-7.6822,-5.0429,-2.8881,0.1429,-0.2101,0.0538,20.99
3124050534100,331088,-7.3759,-4.9974,-3.0269,0.1002,-0.2321,0.1124,20.99
3124062051100,331100,-7.0026,-5.3360,-3.2818,0.0916,-0.2871,0.1881,20.96
3124073401900,331111,-6.9356,-5.4365,-3.0760,0.0318,-0.4691,0.4435,20.93
3124084568000,331122,-6.8985,-5.3791,-3.0185,0.0061,-0.5327,0.6182,20.93
3124095706900,331133,-6.8686,-5.3312,-2.9085,-0.0147,-0.5815,0.7856,20.97
3124106729600,331145,-6.4487,-5.3348,-2.8152,-0.0525,-0.6206,0.9554,20.97
3124118433900,331156,-5.3551,-5.8134,-3.1274,-0.0489,-0.6891,1.1765,20.97
3124130042300,331167,-4.1157,-6.2656,-3.5330,-0.0049,-0.8161,1.6054,20.97
3124140723800,331179,-3.7412,-5.3839,-3.8130,-0.1026,-1.0250,2.2162,20.98
3124152594400,331190,-14.7817,11.8014,-0.7358,0.5986,-1.0177,1.8350,20.98
3124163699000,331201,-11.9127,-6.0467,-0.1842,0.4374,-0.4777,-0.6243,20.96
3124174673300,331212,-8.8295,-8.8762,-3.3691,2.1209,-0.3482,-0.7428,20.97
3124186566900,331224,-8.7637,-1.0959,-2.9683,0.2957,-0.2395,0.5156,20.97
3124197856600,331236,-9.0784,-0.8112,-2.1655,0.1148,-0.3433,0.3238,20.96
3124208847300,331247,-8.7805,-2.4120,-1.4237,0.2773,-0.3262,0.0269,20.96
3124220467200,331258,-9.2363,-4.0869,-0.0335,0.1527,-0.2272,-0.0635,20.97
3124231734600,331270,-12.7454,-5.7882,2.0985,-0.2419,0.0892,0.0257,20.97
3124242998800,331281,-16.3346,-0.9188,1.9322,-1.0898,1.3647,0.4618,20.98
3124254565700,331292,-15.6646,0.9009,0.1208,-0.5217,1.9499,-0.3152,20.97
3124265357700,331303,-12.0826,0.1555,-2.6393,0.2040,2.2138,-1.3415,20.97
3124277086900,331315,-6.8219,-0.6772,-5.3061,0.6988,2.1380,-1.9438,20.96
3124288400300,331326,-3.8357,-2.8881,-6.8806,0.9444,1.6872,-2.0330,20.96
3124299455600,331337,-3.0700,-5.5525,-6.2345,0.8980,1.0409,-1.6664,20.96
3124311041700,331348,-3.5330,-5.7129,-4.5404,0.6158,0.5278,-0.9639,20.96
3124321816500,331360,-6.4606,-4.7593,-1.9645,0.2395,0.2187,-0.0672,20.99
3124333542200,331371,-8.0363,-5.2917,-2.2528,0.0220,0.3067,-0.0757,20.98
3124345028500,331382,-8.7852,-5.2881,-2.9097,-0.0476,0.4178,-0.1869,20.98
3124355758400,331394,-8.6847,-5.6638,-3.9709,-0.0684,0.4801,-0.3250,21.01
3124367420100,331405,-7.7575,-5.4006,-4.6959,-0.1100,0.4423,-0.3787,21.01
3124378720400,331416,-6.6688,-4.5894,-4.9986,-0.1723,0.2847,-0.3470,20.96
3124389737500,331427,-5.9761,-4.2676,-4.8754,-0.1527,0.0611,-0.3030,20.96
3124401479000,331439,-6.1268,-4.2748,-3.9422,-0.0953,-0.1503,-0.2211,20.97
3124412953100,331450,-7.6199,-4.5990,-3.3176,-0.0208,-0.3580,0.0257,20.96
3124423632200,331461,-8.5651,-4.3298,-3.0903,-0.0648,-0.3152,0.1136,20.96
3124434601000,331472,-9.1274,-4.0451,-3.2231,-0.0929,-0.2358,0.0819,20.98
3124446970900,331484,-9.0329,-4.0152,-3.3775,-0.0403,-0.1625,-0.0330,20.98
3124457814600,331495,-8.7314,-4.3178,-3.4600,0.0367,-0.1063,-0.1258,20.96
3124469046200,331506,-8.3210,-4.4112,-3.2865,0.0648,-0.0611,-0.1405,20.96
3124480825900,331517,-8.0076,-4.2843,-3.1753,0.0489,-0.0232,-0.1161,20.98
3124491736800,331530,-7.6810,-4.1384,-3.4146,0.0147,-0.0037,-0.0953,20.98
3124503565600,331541,-7.5805,-4.3705,-3.5617,0.0220,-0.0770,-0.0819,20.98
3124514415500,331552,-7.6379,-4.5392,-3.6431,0.0367,-0.1515,-0.0501,20.97
3124525621400,331564,-7.6223,-4.4435,-3.5809,0.0403,-0.2224,-0.0147,20.97
3124536952600,331575,-7.6941,-4.4830,-3.4265,0.0513,-0.2724,0.0012,20.93
3124547594900,331586,-7.8712,-4.5882,-3.2207,0.0452,-0.2957,0.0195,20.93
3124559718100,331597,-8.0291,-4.5811,-3.0843,0.0147,-0.2859,0.0464,20.97
3124570633600,331609,-8.1177,-4.5500,-3.1071,-0.0159,-0.2517,0.0635,20.97
3124581610200,331620,-8.0219,-4.3681,-3.6491,-0.0586,-0.2431,0.0684,20.95
3124593436400,331631,-7.9454,-4.2832,-3.6574,-0.0476,-0.2834,0.0757,20.92
3124604479400,331642,-7.6463,-4.2209,-3.5868,0.0049,-0.3384,0.0831,20.92
3124615676300,331654,-7.1976,-4.3860,-3.6191,0.0513,-0.4068,0.1075,20.96
3124626766100,331665,-7.0134,-4.9101,-3.5509,0.0660,-0.4850,0.1881,20.96
3124638966800,331676,-6.7322,-5.0536,-3.3655,0.0171,-0.5779,0.3360,20.99
3124649556300,331687,-6.3637,-4.8706,-3.2518,-0.0696,-0.6842,0.4899,20.99
3124660479300,331699,-6.0574,-4.7330,-3.6251,-0.1271,-0.8112,0.6182,20.99
3124672427800,331710,-5.2451,-4.6947,-4.4399,-0.0770,-1.2413,0.9273,20.96
3124683600000,331721,-5.0704,-4.9484,-4.5153,-0.0183,-1.5687,1.1765,20.96
3124694601900,331732,-5.5908,-4.9065,-3.9506,-0.0501,-1.8912,1.4807,20.94
3124706571000,331744,-7.0564,-4.8514,-2.9037,-0.0953,-2.1356,1.7678,20.94
3124717464100,331755,-16.6361,6.5468,-0.0371,0.5021,-1.7862,1.4123,20.95
3124728666000,331766,-12.1077,-5.1613,3.2351,0.1979,-0.9908,-0.4374,20.95
3124740462500,331778,-8.3127,-8.6632,-0.2118,1.6432,-0.6842,-0.6903,20.96
3124751960100,331789,-8.9372,-0.2417,-1.8389,-0.2456,-0.1283,0.5290,20.96
3124762410800,331800,-9.1561,-2.7805,-1.4668,-0.0293,0.1002,0.1197,21.02
3124774557300,331811,-9.7376,-4.0869,-0.3135,-0.0269,0.2126,0.1075,20.97
3124785501900,331823,-13.1330,-4.0857,0.9021,-0.2615,0.5266,0.3091,20.97
3124796609700,331835,-15.1202,-1.4106,0.9153,-0.3396,1.0079,0.3213,20.99
3124807678600,331846,-14.4993,-0.0120,0.1507,-0.1222,1.4233,-0.2724,20.99
3124819348100,331857,-11.7739,-0.2632,-1.5972,0.2089,1.6530,-1.0727,20.97
3124830541900,331869,-7.5685,-1.2826,-3.3739,0.5290,1.6554,-1.6640,20.97
3124841653100,331880,-4.5691,-6.3290,-5.1147,0.5815,0.9994,-1.5601,20.91
3124853676100,331891,-4.8802,-6.2393,-3.4780,0.3433,0.6512,-0.9004,20.97
3124864640100,331902,-5.7296,-5.2128,-2.1236,0.1393,0.5107,-0.3128,20.97
3124875658100,331914,-7.3866,-4.4722,-1.6211,-0.0452,0.5461,-0.0586,20.97
3124887452800,331925,-8.6070,-4.5703,-1.7874,-0.1442,0.6597,-0.1087,20.97
3124899044300,331936,-8.9850,-4.7198,-2.3498,-0.1845,0.7575,-0.2639,20.96
3124909622300,331948,-8.7900,-5.1482,-3.4792,-0.1613,0.8063,-0.3958,20.96
3124921563600,331959,-7.5015,-3.9350,-5.3336,-0.1881,0.7807,-0.3922,20.97
3124933080000,331970,-6.9117,-3.7376,-5.0297,-0.0342,0.4227,-0.3457,20.98
3124943806200,331981,-6.4965,-3.7759,-4.0845,0.0684,0.2505,-0.2969,20.98
3124954632900,331993,-6.4893,-3.8548,-3.7053,0.0990,0.1674,-0.2053,20.95
3124966500200,332004,-6.8638,-3.8668,-3.9398,0.0782,0.1222,-0.1100,20.95
3124977674700,332015,-7.5015,-3.9051,-4.4291,0.0782,0.0550,-0.0501,20.98
3124989160800,332026,-8.0016,-4.1862,-4.4638,0.1246,-0.0611,-0.0415,20.98
3125000371900,332038,-8.5077,-4.5942,-3.8680,0.1613,-0.1686,-0.0562,20.95
3125011572700,332049,-8.2816,-4.6074,-2.7087,0.1735,-0.1820,-0.0452,20.95
3125022995900,332060,-7.8951,-4.4782,-2.9827,0.0733,-0.0195,-0.0550,20.98
3125033848800,332071,-7.5266,-4.4112,-3.4397,0.0501,0.0330,-0.0476,20.99
3125045638100,332083,-7.2048,-4.3035,-3.8177,0.0538,0.0232,-0.0122,20.99
3125056813000,332094,-7.1821,-4.3071,-4.0451,0.0623,-0.0525,0.0342,20.98
3125067612200,332105,-7.5386,-4.3011,-3.9685,0.0538,-0.1625,0.0794,20.98
3125079342800,332116,-7.7480,-4.2293,-3.7196,0.0611,-0.2578,0.0977,20.98
3125090454100,332128,-7.8568,-4.3119,-3.5031,0.0855,-0.3128,0.0941,20.98
3125101524800,332139,-7.8030,-4.4590,-3.3165,0.0929,-0.3409,0.1405,20.98
3125112644400,332150,-7.6331,-4.4710,-3.3332,0.0452,-0.3531,0.1808,20.96
3125124991000,332162,-7.3376,-4.2903,-3.5246,-0.0012,-0.3861,0.2236,20.96
3125135400000,332173,-7.0205,-4.2748,-3.8046,-0.0281,-0.4606,0.2627,21.00
3125146671100,332185,-6.5037,-4.4136,-4.1169,-0.0086,-0.5938,0.3262,21.00
3125158370900,332196,-6.0144,-4.5547,-4.1480,0.0061,-0.7697,0.4496,20.93
3125169466100,332208,-5.6435,-4.6098,-4.1970,-0.0293,-1.0006,0.6145,20.93
3125180686700,332219,-5.2499,-4.6911,-4.0534,-0.0623,-1.2645,0.7929,20.98
3125192449500,332230,-5.1805,-5.3372,-3.6491,-0.0513,-1.8350,1.2987,20.97
3125203336500,332241,-7.0277,-5.3647,-2.6620,-0.1710,-2.0647,1.5980,20.97
3125214504100,332253,-9.2160,-4.6720,-1.4429,-0.3225,-2.1527,1.8192,20.97
3125226383000,332264,-17.4233,7.9789,0.6329,0.4300,-1.5516,1.2804,20.97
3125237523400,332275,-12.0239,-4.8562,2.4347,0.3433,-0.8406,-0.5779,20.98
3125248622700,332286,-8.1117,-8.5759,-1.0433,1.6982,-0.5522,-0.6805,20.98
3125260312000,332298,-8.3139,-1.9442,-2.5280,0.0867,-0.1356,0.4972,20.96
3125271634200,332309,-8.9695,-2.5950,-1.3448,-0.0489,-0.2175,0.0403,20.96
3125282592800,332320,-9.4528,-4.4195,0.4499,0.2162,-0.1955,-0.0049,20.99
3125293696300,332332,-9.6395,-5.4616,2.3474,-0.1869,0.1613,0.1698,20.95
3125305552400,332343,-13.6750,-4.0283,3.0090,-0.7831,0.8381,0.5241,20.95
3125316797100,332354,-16.7868,0.0167,1.9466,-0.9884,1.5149,0.3848,20.97
3125327716500,332365,-16.2329,1.2730,-0.2500,-0.6206,1.9108,-0.6133,20.97
3125339507400,332377,-12.3721,0.2524,-1.9968,-0.2297,2.0427,-1.8118,20.96
3125350576500,332388,-6.6126,-0.9380,-4.2257,-0.0049,1.9254,-2.5766,20.96
3125361613600,332399,-2.6489,-5.3767,-7.5793,0.6170,1.0434,-2.2235,21.00
3125373544000,332410,-2.6907,-7.1797,-5.3850,0.7343,0.4081,-1.5027,20.96
3125384479100,332422,-3.6024,-5.7009,-2.8546,0.2993,0.0391,-0.6426,20.96
3125395825900,332434,-5.1206,-4.4901,-2.0483,-0.0574,-0.0086,-0.1319,20.96
3125406705500,332445,-6.9344,-4.7270,-2.2134,-0.0721,0.0550,-0.0257,20.96
3125418489600,332456,-8.2552,-5.5442,-3.0640,-0.0525,0.1210,-0.0599,20.96
3125429628200,332468,-8.9480,-5.4975,-3.6634,-0.0819,0.1417,-0.0977,20.96
3125440765200,332479,-8.4012,-4.7342,-4.1874,-0.0916,0.1026,-0.1527,20.96
3125452412600,332490,-7.7276,-4.1456,-4.1276,-0.1148,-0.0733,-0.1979,21.00
3125463530300,332502,-7.3149,-4.0810,-3.7472,-0.0391,-0.1735,-0.2016,21.00
3125474686100,332513,-7.1486,-4.1958,-3.1382,0.0159,-0.2297,-0.1478,20.97
3125486378900,332524,-7.3699,-4.4578,-2.7661,0.0342,-0.2150,-0.0354,20.97
3125497543700,332535,-8.0554,-4.3837,-2.8427,-0.0244,-0.1552,0.0929,20.96
3125508610600,332547,-8.8355,-4.0415,-3.1346,-0.0843,-0.1051,0.1429,20.96
3125519906900,332558,-9.1190,-3.9529,-3.2794,-0.0501,-0.0929,0.0782,20.97
3125531506500,332569,-8.6285,-4.2556,-2.9563,0.0159,-0.1026,-0.1161,20.97
3125542523000,332580,-8.1081,-4.3968,-2.7960,0.0648,-0.0977,-0.1417,20.97
3125553695000,332592,-7.7587,-4.4794,-2.9180,0.0281,-0.0990,-0.1234,20.93
3125565632400,332603,-7.7109,-4.6002,-2.9862,0.0171,-0.1136,-0.0794,20.93
3125576617400,332614,-7.8054,-4.5248,-3.0078,0.0037,-0.1368,-0.0305,20.96
3125587970700,332625,-7.9537,-4.4339,-3.0820,-0.0086,-0.1588,-0.0110,20.96
3125599564500,332637,-8.4191,-4.4997,-3.0820,0.0037,-0.1759,-0.0110,20.98
3125610550700,332648,-8.6692,-4.4650,-2.7864,0.0183,-0.1772,-0.0232,20.98
3125621676200,332659,-8.5807,-4.1551,-2.8546,-0.0122,-0.0599,-0.0757,20.96
3125632780800,332670,-8.3952,-3.9900,-3.1657,-0.0183,-0.0073,-0.1087,20.97
3125644607600,332682,-8.0746,-4.0331,-3.3308,0.0000,-0.0073,-0.1393,20.97
3125655558200,332693,-7.9262,-4.2568,-3.4959,0.0428,-0.0574,-0.1491,20.95
3125666950500,332704,-7.9920,-4.5081,-3.3942,0.0819,-0.1185,-0.1307,20.95
3125678477100,332716,-8.0507,-4.5069,-3.0879,0.0990,-0.1588,-0.0953,20.97
3125689611500,332727,-8.2397,-4.6205,-2.8044,0.0941,-0.1649,-0.0757,20.97
3125700556200,332738,-8.4191,-4.6229,-2.4096,0.0880,-0.1356,-0.0721,20.97
3125711700100,332749,-8.3115,-4.4734,-2.6477,0.0232,0.0037,-0.0599,20.95
3125723372400,332761,-8.2505,-4.3681,-3.0150,0.0195,0.0501,-0.0721,20.95
3125734513200,332772,-8.1846,-4.2233,-3.2614,0.0330,0.0550,-0.0904,20.98
3125745523700,332783,-8.2397,-4.2700,-3.2231,0.0599,0.0354,-0.1112,20.98
3125756832100,332794,-8.1835,-4.3813,-3.0927,0.0831,0.0134,-0.1173,20.95
3125768497400,332806,-8.1811,-4.4411,-3.0664,0.0892,0.0000,-0.1112,20.95
3125779473300,332817,-8.2277,-4.5188,-3.0700,0.0904,-0.0073,-0.1087,20.96
3125790578700,332828,-8.0722,-4.4961,-2.9587,0.0880,-0.0134,-0.1038,20.96
3125802267600,332839,-8.0471,-4.4566,-2.9898,0.0648,0.0049,-0.0794,20.97
3125813424200,332851,-8.0231,-4.4734,-3.0843,0.0709,0.0159,-0.0696,20.98
3125824643800,332862,-8.0183,-4.4842,-3.1872,0.0672,0.0098,-0.0635,20.98
3125835861500,332873,-8.0435,-4.5368,-3.2160,0.0733,-0.0122,-0.0684,20.96
3125847413700,332884,-7.9537,-4.5990,-3.1346,0.0757,-0.0476,-0.0757,20.96
3125858511000,332896,-7.8772,-4.6433,-3.0939,0.0782,-0.0806,-0.0819,20.95
3125869643500,332907,-7.9047,-4.7940,-3.0832,0.0745,-0.1026,-0.0782,20.95
3125881385000,332918,-8.2134,-4.6481,-3.0185,0.0525,-0.1136,-0.0391,20.97
3125892504800,332931,-8.2002,-4.5464,-2.8989,0.0257,-0.0977,-0.0305,20.95
3125903556300,332942,-8.1188,-4.4279,-2.9719,0.0293,-0.0684,-0.0220,20.95
3125915064300,332953,-8.1021,-4.4471,-3.1860,0.0367,-0.0574,-0.0269,20.99
3125926860600,332964,-8.1177,-4.4279,-3.2830,0.0476,-0.0660,-0.0281,20.99
3125937706900,332976,-8.2277,-4.4148,-3.1394,0.0538,-0.0880,-0.0305,21.00
3125949029700,332987,-8.3988,-4.5129,-2.7996,0.0391,-0.1026,-0.0415,21.00
3125960828200,332998,-8.4945,-4.4698,-2.5902,0.0073,-0.0843,-0.0623,21.00
3125971552300,333009,-8.4036,-4.4602,-2.8032,-0.0073,-0.0134,-0.1466,20.00
3125982987300,333021,-8.1823,-4.5368,-2.8331,-0.0061,0.0134,-0.1662,20.97
3125993748600,333032,-7.9741,-4.6050,-2.9384,0.0134,0.0415,-0.1356,20.97
3126005535400,333043,-7.8915,-4.5428,-3.1155,0.0305,0.0513,-0.0867,20.97
3126017015400,333054,-7.9980,-4.3860,-3.2303,0.0281,0.0391,-0.0574,20.96
3126027659000,333066,-8.2672,-4.4686,-3.0903,0.0489,0.0183,-0.0648,20.96
3126038962300,333077,-8.3868,-4.6014,-2.8451,0.0770,0.0147,-0.0880,20.98
3126050718400,333088,-8.2804,-4.5703,-2.9803,0.0770,0.0281,-0.1185,20.98
3126061740500,333100,-7.8556,-4.7402,-3.0377,0.0794,0.0281,-0.1784,20.94
3126072579800,333111,-7.5470,-4.7462,-3.1059,0.0733,0.0061,-0.1674,21.00
3126084306500,333122,-7.4752,-4.8861,-3.2399,0.0599,-0.0354,-0.1405,21.00
3126095489800,333133,-7.5960,-4.8634,-3.2794,0.0379,-0.0831,-0.0990,20.98
3126106561600,333145,-7.8604,-4.7677,-3.1992,0.0147,-0.1197,-0.0599,20.98
3126117641700,333156,-8.2624,-4.7916,-3.0162,-0.0073,-0.1295,-0.0354,20.98
3126129474000,333167,-8.4180,-4.5404,-2.9492,-0.0122,-0.1063,-0.0293,20.98
3126140675300,333178,-8.2983,-4.5081,-3.1968,-0.0134,-0.0660,-0.0550,20.96
3126151717200,333190,-8.1464,-4.4842,-3.2518,0.0086,-0.0257,-0.1075,20.97
3126163299800,333201,-7.9968,-4.5930,-3.1167,0.0147,-0.0318,-0.1148,20.97
3126174578100,333212,-7.8616,-4.6433,-3.0221,0.0147,-0.0342,-0.1087,20.98
3126185586400,333223,-7.8341,-4.6229,-3.1286,0.0208,-0.0367,-0.1051,20.98
3126197458600,333235,-7.9071,-4.7916,-3.1848,0.0281,-0.0611,-0.1136,20.96
3126208292300,333246,-7.9825,-4.9723,-3.0592,0.0354,-0.0929,-0.1100,20.96
3126219748300,333257,-8.0207,-4.9352,-2.8391,0.0257,-0.1087,-0.0892,20.98
3126231093000,333268,-8.0459,-4.6923,-2.7984,0.0000,-0.0684,-0.0794,20.98
3126242302600,333280,-8.0542,-4.6804,-2.9300,-0.0281,-0.0476,-0.0867,20.98
3126253423300,333291,-7.9801,-4.7354,-3.0544,-0.0232,-0.0476,-0.0843,20.96
3126264534500,333302,-7.9585,-4.6516,-3.1226,-0.0024,-0.0525,-0.0660,20.96
3126275623100,333314,-7.9944,-4.5918,-3.1334,0.0086,-0.0611,-0.0550,20.98
3126287512700,333325,-8.0889,-4.6110,-3.0855,0.0195,-0.0672,-0.0672,20.98
3126298914900,333336,-8.2445,-4.7581,-2.9575,0.0171,-0.0611,-0.0880,20.94
3126309603500,333347,-8.2337,-4.7450,-2.8738,0.0208,-0.0318,-0.1014,20.94
3126321504700,333359,-8.0578,-4.7378,-3.0999,0.0305,0.0244,-0.1124,20.96
3126332727800,333370,-8.0100,-4.6385,-3.1358,0.0330,0.0195,-0.0965,21.00
3126343455900,333381,-8.0016,-4.5308,-3.1310,0.0403,-0.0037,-0.0867,21.00
3126354625100,333392,-7.9765,-4.5787,-3.0245,0.0440,-0.0293,-0.0916,20.98
3126366576200,333404,-8.0052,-4.6875,-2.9109,0.0525,-0.0415,-0.0990,20.98
3126377525400,333415,-7.9848,-4.7785,-2.8845,0.0562,-0.0391,-0.1026,20.95
3126388690000,333426,-7.8891,-4.7856,-2.9743,0.0586,-0.0293,-0.1051,20.95
3126400463000,333437,-7.8138,-4.8562,-3.1825,0.0660,-0.0318,-0.1136,20.99
3126411518100,333449,-7.8556,-5.1948,-3.0150,0.0782,-0.0501,-0.0977,21.00
3126422515100,333460,-7.8760,-5.0608,-2.9216,0.0525,-0.0318,-0.0660,21.00
3126433811900,333471,-7.9119,-4.9723,-3.0449,0.0208,-0.0073,-0.0623,20.97
3126445460300,333483,-7.9310,-4.9161,-3.2518,0.0037,0.0098,-0.0709,20.97
3126456442900,333494,-7.9502,-4.8012,-3.3452,0.0000,0.0134,-0.0770,21.00
3126467710200,333505,-7.8903,-4.7019,-3.3882,0.0073,0.0024,-0.0892,21.00
3126478680400,333516,-7.8867,-4.7402,-3.3990,0.0379,-0.0195,-0.1014,21.01
3126490900900,333528,-7.9238,-5.2068,-3.0760,0.0635,-0.0464,-0.1100,21.01
3126501470200,333539,-7.9214,-4.9687,-2.9336,0.0342,-0.0586,-0.1026,20.98
3126512668000,333550,-7.9310,-4.9292,-2.8642,0.0061,-0.0391,-0.0916,20.97
3126523795400,333561,-7.9035,-4.8299,-2.8977,-0.0147,-0.0098,-0.0855,20.97
3126535487200,333573,-7.8987,-4.8503,-3.0114,-0.0037,0.0061,-0.0941,21.01
3126546531600,333584,-7.8556,-4.8969,-3.0652,0.0024,0.0000,-0.0990,21.01
3126557707900,333595,-7.8353,-4.8634,-3.0341,0.0037,-0.0147,-0.0880,20.98
3126569485300,333606,-7.7910,-4.8144,-3.0317,-0.0037,-0.0367,-0.0782,20.98
3126580957800,333618,-7.8150,-4.8072,-3.0915,-0.0086,-0.0489,-0.0745,20.97
3126591640500,333629,-7.8556,-4.8778,-3.1430,-0.0037,-0.0562,-0.0648,20.98
3126602750000,333640,-7.8580,-4.9340,-3.2195,-0.0024,-0.0623,-0.0672,20.98
3126615019800,333652,-7.8485,-5.0034,-3.2459,0.0049,-0.0696,-0.0745,21.01
3126625602500,333664,-7.9370,-5.0644,-3.1932,-0.0049,-0.0745,-0.0770,21.01
3126636613500,333675,-7.9525,-4.9866,-3.0820,-0.0110,-0.0599,-0.0696,20.98
3126648938700,333686,-7.9573,-4.8838,-3.1071,0.0000,-0.0354,-0.0648,20.98
3126659602000,333698,-7.8891,-4.7988,-3.2471,0.0049,-0.0220,-0.0721,20.99
3126670543200,333709,-7.7360,-4.9065,-3.2806,0.0134,-0.0489,-0.0843,20.99
3126681780400,333720,-7.6762,-4.9759,-3.2136,0.0281,-0.0721,-0.0806,21.01
3126693340200,333731,-7.6654,-5.0656,-3.0975,0.0220,-0.0904,-0.0733,20.98
